<?xml version="1.0" encoding="UTF-8"?>

<Bundle xmlns="http://hl7.org/fhir">
  <id value="MultiLine-Presc-METHOTREXATE-LEDERFOLINE"/>
  <meta>
    <profile value="https://hl7.fr/ig/fhir/medication/StructureDefinition/fr-prescription-bundle-for-example"/>
  </meta>
  <type value="searchset"/>
  <entry>
    <resource>
      <MedicationRequest>
        <id value="medicationrequest-Presc-METHOTREXATE"/>
        <meta>
          <profile value="https://hl7.fr/ig/fhir/medication/StructureDefinition/fr-inpatient-medicationrequest"/>
          <profile value="https://hl7.fr/fhir/fr/medication/StructureDefinition/fr-inpatient-medicationrequest"/>
        </meta>
        <text>
          <status value="generated"/><div xmlns="http://www.w3.org/1999/xhtml"><a name="MedicationRequest_medicationrequest-Presc-METHOTREXATE"> </a><p class="res-header-id"><b>Generated Narrative: MedicationRequest medicationrequest-Presc-METHOTREXATE</b></p><a name="medicationrequest-Presc-METHOTREXATE"> </a><a name="hcmedicationrequest-Presc-METHOTREXATE"> </a><div style="display: inline-block; background-color: #d9e0e7; padding: 6px; margin: 4px; border: 1px solid #8da1b4; border-radius: 5px; line-height: 60%"><p style="margin-bottom: 0px"/><p style="margin-bottom: 0px">Profiles: <a href="StructureDefinition-fr-inpatient-medicationrequest.html">FrInpatientMedicationRequest</a>, <code>https://hl7.fr/fhir/fr/medication/StructureDefinition/fr-inpatient-medicationrequest</code></p></div><p><b>status</b>: Active</p><p><b>intent</b>: Order</p><p><b>priority</b>: Routine</p><p><b>medication</b>: <span title="Codes:{http://data.esante.gouv.fr/ansm/medicament/UCD 3400894357391}">METHOTREX.ACC 25MG/ML FL2ML</span></p><p><b>subject</b>: <a href="Patient/30003">Patient/30003</a></p><p><b>authoredOn</b>: 2025-05-02 14:48:44+0000</p><p><b>requester</b>: <a href="Practitioner/smart-Practitioner-3003">Practitioner/smart-Practitioner-3003</a></p><p><b>groupIdentifier</b>: <code>https://somehospital.fr/Prescrption-ID</code>/Presc-30003</p><blockquote><p><b>dosageInstruction</b></p><p><b>timing</b>: Once</p><p><b>route</b>: <span title="Codes:{http://standardterms.edqm.eu 20035000}">Voie intramusculaire</span></p><h3>DoseAndRates</h3><table class="grid"><tr><td style="display: none">-</td><td><b>Dose[x]</b></td></tr><tr><td style="display: none">*</td><td>2 Flacon<span style="background: LightGoldenRodYellow"> (Details: standardterms.edqm.eu  code15009000 = 'Bottle')</span></td></tr></table></blockquote></div>
        </text>
        <status value="active"/>
        <intent value="order"/>
        <priority value="routine"/>
        <medicationCodeableConcept>
          <coding>
            <system value="http://data.esante.gouv.fr/ansm/medicament/UCD"/>
            <code value="3400894357391"/>
            <display value="METHOTREX.ACC 25MG/ML FL2ML"/>
          </coding>
        </medicationCodeableConcept>
        <subject>
          <reference value="Patient/30003"/>
        </subject>
        <authoredOn value="2025-05-02T14:48:44.461Z"/>
        <requester>
          <reference value="Practitioner/smart-Practitioner-3003"/>
        </requester>
        <groupIdentifier>
          <system value="https://somehospital.fr/Prescrption-ID"/>
          <value value="Presc-30003"/>
        </groupIdentifier>
        <dosageInstruction>
          <timing>
            <repeat>
              <boundsPeriod>
                <start value="2025-05-02T14:49:00Z"/>
                <end value="2025-05-30T14:48:59Z"/>
              </boundsPeriod>
              <frequency value="1"/>
              <periodUnit value="wk"/>
              <dayOfWeek value="fri"/>
            </repeat>
          </timing>
          <route>
            <coding>
              <system value="http://standardterms.edqm.eu"/>
              <code value="20035000"/>
              <display value="Voie intramusculaire"/>
            </coding>
            <text value="Voie intramusculaire"/>
          </route>
          <doseAndRate>
            <doseQuantity>
              <value value="2"/>
              <unit value="Flacon"/>
              <system value="http://standardterms.edqm.eu"/>
              <code value="15009000"/>
            </doseQuantity>
          </doseAndRate>
        </dosageInstruction>
      </MedicationRequest>
    </resource>
  </entry>
  <entry>
    <resource>
      <MedicationRequest>
        <id value="medicationrequest-Presc-LEDERFOLINE"/>
        <meta>
          <profile value="https://hl7.fr/ig/fhir/medication/StructureDefinition/fr-inpatient-medicationrequest-exclusion"/>
          <profile value="https://hl7.fr/fhir/fr/medication/StructureDefinition/fr-inpatient-medicationrequest-exclusion"/>
        </meta>
        <text>
          <status value="generated"/><div xmlns="http://www.w3.org/1999/xhtml"><a name="MedicationRequest_medicationrequest-Presc-LEDERFOLINE"> </a><p class="res-header-id"><b>Generated Narrative: MedicationRequest medicationrequest-Presc-LEDERFOLINE</b></p><a name="medicationrequest-Presc-LEDERFOLINE"> </a><a name="hcmedicationrequest-Presc-LEDERFOLINE"> </a><div style="display: inline-block; background-color: #d9e0e7; padding: 6px; margin: 4px; border: 1px solid #8da1b4; border-radius: 5px; line-height: 60%"><p style="margin-bottom: 0px"/><p style="margin-bottom: 0px">Profiles: <a href="StructureDefinition-fr-inpatient-medicationrequest-exclusion.html">FrInpatientMedicationRequestExclusion</a>, <code>https://hl7.fr/fhir/fr/medication/StructureDefinition/fr-inpatient-medicationrequest-exclusion</code></p></div><p><b>status</b>: Active</p><p><b>intent</b>: Order</p><p><b>priority</b>: Routine</p><p><b>medication</b>: <span title="Codes:{http://data.esante.gouv.fr/ansm/medicament/UCD 3400891463088}">LEDERFOLINE 25MG CPR</span></p><p><b>subject</b>: <a href="Patient/30003">Patient/30003</a></p><p><b>authoredOn</b>: 2025-05-02 14:48:44+0000</p><p><b>requester</b>: <a href="Practitioner/smart-Practitioner-3003">Practitioner/smart-Practitioner-3003</a></p><p><b>groupIdentifier</b>: <code>https://somehospital.fr/Prescrption-ID</code>/Presc-30003</p><blockquote><p><b>dosageInstruction</b></p><p><b>timing</b>: Once</p><p><b>route</b>: <span title="Codes:{http://standardterms.edqm.eu 20053000}">Voie orale</span></p><h3>DoseAndRates</h3><table class="grid"><tr><td style="display: none">-</td><td><b>Dose[x]</b></td></tr><tr><td style="display: none">*</td><td>2 Comprimé<span style="background: LightGoldenRodYellow"> (Details: standardterms.edqm.eu  code15054000 = 'Tablet')</span></td></tr></table></blockquote></div>
        </text>
        <status value="active"/>
        <intent value="order"/>
        <priority value="routine"/>
        <medicationCodeableConcept>
          <coding>
            <system value="http://data.esante.gouv.fr/ansm/medicament/UCD"/>
            <code value="3400891463088"/>
            <display value="LEDERFOLINE 25MG CPR"/>
          </coding>
        </medicationCodeableConcept>
        <subject>
          <reference value="Patient/30003"/>
        </subject>
        <authoredOn value="2025-05-02T14:48:44.461Z"/>
        <requester>
          <reference value="Practitioner/smart-Practitioner-3003"/>
        </requester>
        <groupIdentifier>
          <system value="https://somehospital.fr/Prescrption-ID"/>
          <value value="Presc-30003"/>
        </groupIdentifier>
        <dosageInstruction>
          <timing>
            <repeat>
              <boundsPeriod>
                <start value="2025-05-02T14:49:00Z"/>
                <end value="2025-05-30T14:48:59Z"/>
              </boundsPeriod>
              <frequency value="1"/>
              <periodUnit value="wk"/>
              <dayOfWeek value="fri"/>
            </repeat>
          </timing>
          <route>
            <coding>
              <system value="http://standardterms.edqm.eu"/>
              <code value="20053000"/>
              <display value="Voie orale"/>
            </coding>
            <text value="Voie orale"/>
          </route>
          <doseAndRate>
            <doseQuantity>
              <value value="2"/>
              <unit value="Comprimé"/>
              <system value="http://standardterms.edqm.eu"/>
              <code value="15054000"/>
            </doseQuantity>
          </doseAndRate>
        </dosageInstruction>
      </MedicationRequest>
    </resource>
  </entry>
  <entry>
    <resource>
      <RequestGroup>
        <id value="requestgroup-Presc-METHOTREXATE-LEDERFOLINE"/>
        <meta>
          <profile value="https://hl7.fr/ig/fhir/medication/StructureDefinition/fr-requestgroup-for-prescription"/>
          <profile value="https://hl7.fr/fhir/fr/medication/StructureDefinition/fr-requestgroup-for-prescription"/>
        </meta>
        <text>
          <status value="generated"/><div xmlns="http://www.w3.org/1999/xhtml"><a name="RequestGroup_requestgroup-Presc-METHOTREXATE-LEDERFOLINE"> </a><p class="res-header-id"><b>Generated Narrative: RequestGroup requestgroup-Presc-METHOTREXATE-LEDERFOLINE</b></p><a name="requestgroup-Presc-METHOTREXATE-LEDERFOLINE"> </a><a name="hcrequestgroup-Presc-METHOTREXATE-LEDERFOLINE"> </a><div style="display: inline-block; background-color: #d9e0e7; padding: 6px; margin: 4px; border: 1px solid #8da1b4; border-radius: 5px; line-height: 60%"><p style="margin-bottom: 0px"/><p style="margin-bottom: 0px">Profiles: <a href="StructureDefinition-fr-requestgroup-for-prescription.html">FrRequestGroupForPrescrption</a>, <code>https://hl7.fr/fhir/fr/medication/StructureDefinition/fr-requestgroup-for-prescription</code></p></div><p><b>groupIdentifier</b>: <code>https://somehospital.fr/Prescrption-ID</code>/Presc-30003</p><p><b>status</b>: Active</p><p><b>intent</b>: Order</p><p><b>priority</b>: Routine</p><p><b>subject</b>: <a href="Patient/30003">Patient/30003</a></p><blockquote><p><b>action</b></p><blockquote><p><b>id</b></p>Action1</blockquote><h3>RelatedActions</h3><table class="grid"><tr><td style="display: none">-</td><td><b>ActionId</b></td><td><b>Relationship</b></td></tr><tr><td style="display: none">*</td><td>Action2</td><td>Concurrent</td></tr></table><p><b>resource</b>: <code>#medicationrequest-Presc-LEDERFOLINE</code></p></blockquote><blockquote><p><b>action</b></p><blockquote><p><b>id</b></p>Action2</blockquote><p><b>resource</b>: <code>#medicationrequest-Presc-METHOTREXATE</code></p></blockquote></div>
        </text>
        <groupIdentifier>
          <system value="https://somehospital.fr/Prescrption-ID"/>
          <value value="Presc-30003"/>
        </groupIdentifier>
        <status value="active"/>
        <intent value="order"/>
        <priority value="routine"/>
        <subject>
          <reference value="Patient/30003"/>
        </subject>
        <action id="Action1">
          <relatedAction>
            <actionId value="Action2"/>
            <relationship value="concurrent"/>
          </relatedAction>
          <resource>
            <reference value="#medicationrequest-Presc-LEDERFOLINE"/>
          </resource>
        </action>
        <action id="Action2">
          <resource>
            <reference value="#medicationrequest-Presc-METHOTREXATE"/>
          </resource>
        </action>
      </RequestGroup>
    </resource>
  </entry>
</Bundle>