<?xml version="1.0" encoding="UTF-8"?>

<Bundle xmlns="http://hl7.org/fhir">
  <id value="Presc-PerfGl-NaCl-KCl-1l"/>
  <meta>
    <profile value="https://hl7.fr/ig/fhir/medication/StructureDefinition/fr-prescription-bundle-for-example"/>
  </meta>
  <type value="searchset"/>
  <entry>
    <resource>
      <Medication>
        <id value="medication-1-Presc-PerfGl-NaCl-KCl-1l"/>
        <meta>
          <profile value="https://hl7.fr/ig/fhir/medication/StructureDefinition/fr-medication-noncompound"/>
        </meta>
        <text>
          <status value="generated"/><div xmlns="http://www.w3.org/1999/xhtml"><a name="Medication_medication-1-Presc-PerfGl-NaCl-KCl-1l"> </a><p class="res-header-id"><b>Narratif généré : Médication medication-1-Presc-PerfGl-NaCl-KCl-1l</b></p><a name="medication-1-Presc-PerfGl-NaCl-KCl-1l"> </a><a name="hcmedication-1-Presc-PerfGl-NaCl-KCl-1l"> </a><div style="display: inline-block; background-color: #d9e0e7; padding: 6px; margin: 4px; border: 1px solid #8da1b4; border-radius: 5px; line-height: 60%"><p style="margin-bottom: 0px"/><p style="margin-bottom: 0px">Profil: <a href="StructureDefinition-fr-medication-noncompound.html">FR Medication Non Compound</a></p></div><p><b>code</b>: <span title="Codes:{http://data.esante.gouv.fr/ansm/medicament/codeSMS 100000078171}">GLUCOSE</span></p><p><b>form</b>: <span title="Codes:{http://standardterms.edqm.eu 11210000}">solution pour perfusion</span></p><p><b>amount</b>: 1 L<span style="background: LightGoldenRodYellow"> (Details: UCUM  codeL = 'L')</span>/1</p><h3>Ingredients</h3><table class="grid"><tr><td style="display: none">-</td><td><b>Item[x]</b></td><td><b>Strength</b></td></tr><tr><td style="display: none">*</td><td><span title="Codes:{http://snomed.info/sct 67079006}">GLUCOSE</span></td><td>50 mg<span style="background: LightGoldenRodYellow"> (Details: UCUM  codemg = 'mg')</span>/1 mL<span style="background: LightGoldenRodYellow"> (Details: UCUM  codemL = 'mL')</span></td></tr></table></div>
        </text>
        <code>
          <coding>
            <system value="http://data.esante.gouv.fr/ansm/medicament/codeSMS"/>
            <code value="100000078171"/>
            <display value="glucose"/>
          </coding>
          <text value="GLUCOSE"/>
        </code>
        <form>
          <coding>
            <system value="http://standardterms.edqm.eu"/>
            <code value="11210000"/>
            <display value="solution pour perfusion"/>
          </coding>
          <text value="solution pour perfusion"/>
        </form>
        <amount>
          <numerator>
            <value value="1"/>
            <unit value="L"/>
            <system value="http://unitsofmeasure.org"/>
            <code value="L"/>
          </numerator>
          <denominator>
            <value value="1"/>
          </denominator>
        </amount>
        <ingredient>
          <itemCodeableConcept>
            <coding>
              <system value="http://snomed.info/sct"/>
              <code value="67079006"/>
              <display value="glucose"/>
            </coding>
            <text value="GLUCOSE"/>
          </itemCodeableConcept>
          <strength>
            <numerator>
              <value value="50"/>
              <unit value="mg"/>
              <system value="http://unitsofmeasure.org"/>
              <code value="mg"/>
            </numerator>
            <denominator>
              <value value="1"/>
              <unit value="mL"/>
              <system value="http://unitsofmeasure.org"/>
              <code value="mL"/>
            </denominator>
          </strength>
        </ingredient>
      </Medication>
    </resource>
  </entry>
  <entry>
    <resource>
      <Medication>
        <id value="medication-2-Presc-PerfGl-NaCl-KCl-1l"/>
        <meta>
          <profile value="https://hl7.fr/ig/fhir/medication/StructureDefinition/fr-medication-noncompound"/>
        </meta>
        <text>
          <status value="generated"/><div xmlns="http://www.w3.org/1999/xhtml"><a name="Medication_medication-2-Presc-PerfGl-NaCl-KCl-1l"> </a><p class="res-header-id"><b>Narratif généré : Médication medication-2-Presc-PerfGl-NaCl-KCl-1l</b></p><a name="medication-2-Presc-PerfGl-NaCl-KCl-1l"> </a><a name="hcmedication-2-Presc-PerfGl-NaCl-KCl-1l"> </a><div style="display: inline-block; background-color: #d9e0e7; padding: 6px; margin: 4px; border: 1px solid #8da1b4; border-radius: 5px; line-height: 60%"><p style="margin-bottom: 0px"/><p style="margin-bottom: 0px">Profil: <a href="StructureDefinition-fr-medication-noncompound.html">FR Medication Non Compound</a></p></div><p><b>code</b>: <span title="Codes:{http://data.esante.gouv.fr/ansm/medicament/codeSMS 100000092115}">SODIUM CHLORURE</span></p><p><b>form</b>: <span title="Codes:{http://standardterms.edqm.eu 11201000}">solution injectable</span></p><p><b>amount</b>: 3 g<span style="background: LightGoldenRodYellow"> (Details: UCUM  codeg = 'g')</span>/1</p></div>
        </text>
        <code>
          <coding>
            <system value="http://data.esante.gouv.fr/ansm/medicament/codeSMS"/>
            <code value="100000092115"/>
            <display value="chlorure de sodium"/>
          </coding>
          <text value="SODIUM CHLORURE"/>
        </code>
        <form>
          <coding>
            <system value="http://standardterms.edqm.eu"/>
            <code value="11201000"/>
            <display value="solution injectable"/>
          </coding>
          <text value="solution injectable"/>
        </form>
        <amount>
          <numerator>
            <value value="3"/>
            <unit value="g"/>
            <system value="http://unitsofmeasure.org"/>
            <code value="g"/>
          </numerator>
          <denominator>
            <value value="1"/>
          </denominator>
        </amount>
      </Medication>
    </resource>
  </entry>
  <entry>
    <resource>
      <Medication>
        <id value="medication-3-Presc-PerfGl-NaCl-KCl-1l"/>
        <meta>
          <profile value="https://hl7.fr/ig/fhir/medication/StructureDefinition/fr-medication-noncompound"/>
        </meta>
        <text>
          <status value="generated"/><div xmlns="http://www.w3.org/1999/xhtml"><a name="Medication_medication-3-Presc-PerfGl-NaCl-KCl-1l"> </a><p class="res-header-id"><b>Narratif généré : Médication medication-3-Presc-PerfGl-NaCl-KCl-1l</b></p><a name="medication-3-Presc-PerfGl-NaCl-KCl-1l"> </a><a name="hcmedication-3-Presc-PerfGl-NaCl-KCl-1l"> </a><div style="display: inline-block; background-color: #d9e0e7; padding: 6px; margin: 4px; border: 1px solid #8da1b4; border-radius: 5px; line-height: 60%"><p style="margin-bottom: 0px"/><p style="margin-bottom: 0px">Profil: <a href="StructureDefinition-fr-medication-noncompound.html">FR Medication Non Compound</a></p></div><p><b>code</b>: <span title="Codes:{http://data.esante.gouv.fr/ansm/medicament/codeSMS 100000091807}">POTASSIUM CHLORURE</span></p><p><b>form</b>: <span title="Codes:{http://standardterms.edqm.eu 11201000}">solution injectable</span></p><p><b>amount</b>: 2 g<span style="background: LightGoldenRodYellow"> (Details: UCUM  codeg = 'g')</span>/1</p></div>
        </text>
        <code>
          <coding>
            <system value="http://data.esante.gouv.fr/ansm/medicament/codeSMS"/>
            <code value="100000091807"/>
            <display value="chlorure de potassium"/>
          </coding>
          <text value="POTASSIUM CHLORURE"/>
        </code>
        <form>
          <coding>
            <system value="http://standardterms.edqm.eu"/>
            <code value="11201000"/>
            <display value="solution injectable"/>
          </coding>
          <text value="solution injectable"/>
        </form>
        <amount>
          <numerator>
            <value value="2"/>
            <unit value="g"/>
            <system value="http://unitsofmeasure.org"/>
            <code value="g"/>
          </numerator>
          <denominator>
            <value value="1"/>
          </denominator>
        </amount>
      </Medication>
    </resource>
  </entry>
  <entry>
    <resource>
      <Medication>
        <id value="medication-C-14638"/>
        <meta>
          <profile value="https://hl7.fr/ig/fhir/medication/StructureDefinition/fr-medication-compound"/>
        </meta>
        <text>
          <status value="generated"/><div xmlns="http://www.w3.org/1999/xhtml"><a name="Medication_medication-C-14638"> </a><p class="res-header-id"><b>Narratif généré : Médication medication-C-14638</b></p><a name="medication-C-14638"> </a><a name="hcmedication-C-14638"> </a><div style="display: inline-block; background-color: #d9e0e7; padding: 6px; margin: 4px; border: 1px solid #8da1b4; border-radius: 5px; line-height: 60%"><p style="margin-bottom: 0px"/><p style="margin-bottom: 0px">Profil: <a href="StructureDefinition-fr-medication-compound.html">FR Medication Compound</a></p></div><p><b>code</b>: <span title="Codes:">G5 1L + NaCl 3g + KCl 2g</span></p><blockquote><p><b>ingredient</b></p><p><b>item</b>: <code>#medication-1-Presc-PerfGl-NaCl-KCl-1l</code></p></blockquote><blockquote><p><b>ingredient</b></p><p><b>item</b>: <code>#medication-2-Presc-PerfGl-NaCl-KCl-1l</code></p></blockquote><blockquote><p><b>ingredient</b></p><p><b>item</b>: <code>#medication-3-Presc-PerfGl-NaCl-KCl-1l</code></p></blockquote></div>
        </text>
        <code>
          <text value="G5 1L + NaCl 3g + KCl 2g"/>
        </code>
        <ingredient>
          <itemReference>
            <reference value="#medication-1-Presc-PerfGl-NaCl-KCl-1l"/>
          </itemReference>
        </ingredient>
        <ingredient>
          <itemReference>
            <reference value="#medication-2-Presc-PerfGl-NaCl-KCl-1l"/>
          </itemReference>
        </ingredient>
        <ingredient>
          <itemReference>
            <reference value="#medication-3-Presc-PerfGl-NaCl-KCl-1l"/>
          </itemReference>
        </ingredient>
      </Medication>
    </resource>
  </entry>
  <entry>
    <resource>
      <MedicationRequest>
        <id value="medicationrequest-Presc-PerfGl-NaCl-KCl-1l"/>
        <meta>
          <profile value="https://hl7.fr/ig/fhir/medication/StructureDefinition/fr-inpatient-medicationrequest"/>
        </meta>
        <text>
          <status value="generated"/><div xmlns="http://www.w3.org/1999/xhtml"><a name="MedicationRequest_medicationrequest-Presc-PerfGl-NaCl-KCl-1l"> </a><p class="res-header-id"><b>Narratif généré : PrescriptionMédicamenteuseTODO medicationrequest-Presc-PerfGl-NaCl-KCl-1l</b></p><a name="medicationrequest-Presc-PerfGl-NaCl-KCl-1l"> </a><a name="hcmedicationrequest-Presc-PerfGl-NaCl-KCl-1l"> </a><div style="display: inline-block; background-color: #d9e0e7; padding: 6px; margin: 4px; border: 1px solid #8da1b4; border-radius: 5px; line-height: 60%"><p style="margin-bottom: 0px"/><p style="margin-bottom: 0px">Profil: <a href="StructureDefinition-fr-inpatient-medicationrequest.html">FR Inpatient MedicationRequest</a></p></div><p><b>status</b>: Active</p><p><b>intent</b>: Order</p><p><b>priority</b>: Routine</p><p><b>medication</b>: <code>#medication-C-Presc-PerfGl-NaCl-KCl-1l</code></p><p><b>subject</b>: <a href="Patient/14602">Patient/14602</a></p><p><b>authoredOn</b>: 2021-08-02 15:26:27+0000</p><p><b>requester</b>: <a href="Practitioner/smart-Practitioner-71482713">Practitioner/smart-Practitioner-71482713</a></p><p><b>groupIdentifier</b>: <code>https://somehospital.fr/Prescrption-ID</code>/Presc-14638</p><blockquote><p><b>dosageInstruction</b></p><p><b>sequence</b>: 1</p><p><b>timing</b>: Once</p><p><b>route</b>: <span title="Codes:{http://standardterms.edqm.eu 20045000}">Voie intraveineuse</span></p><h3>DoseAndRates</h3><table class="grid"><tr><td style="display: none">-</td><td><b>Rate[x]</b></td></tr><tr><td style="display: none">*</td><td>1 Poche<span style="background: LightGoldenRodYellow"> (Details: standardterms.edqm.eu  code15005000 = 'Bag')</span>/12 h<span style="background: LightGoldenRodYellow"> (Details: UCUM  codeh = 'h')</span></td></tr></table></blockquote></div>
        </text>
        <status value="active"/>
        <intent value="order"/>
        <priority value="routine"/>
        <medicationReference>
          <reference value="#medication-C-Presc-PerfGl-NaCl-KCl-1l"/>
        </medicationReference>
        <subject>
          <reference value="Patient/14602"/>
        </subject>
        <authoredOn value="2021-08-02T15:26:27.603Z"/>
        <requester>
          <reference value="Practitioner/smart-Practitioner-71482713"/>
        </requester>
        <groupIdentifier>
          <system value="https://somehospital.fr/Prescrption-ID"/>
          <value value="Presc-14638"/>
        </groupIdentifier>
        <dosageInstruction>
          <sequence value="1"/>
          <timing>
            <repeat>
              <boundsPeriod>
                <start value="2021-07-02T15:26:00Z"/>
                <end value="2021-07-07T15:25:59Z"/>
              </boundsPeriod>
              <timeOfDay value="10:00:00"/>
              <timeOfDay value="22:00:00"/>
            </repeat>
          </timing>
          <route>
            <coding>
              <system value="http://standardterms.edqm.eu"/>
              <code value="20045000"/>
              <display value="Voie intraveineuse"/>
            </coding>
            <text value="Voie intraveineuse"/>
          </route>
          <doseAndRate>
            <rateRatio>
              <numerator>
                <value value="1"/>
                <unit value="Poche"/>
                <system value="http://standardterms.edqm.eu"/>
                <code value="15005000"/>
              </numerator>
              <denominator>
                <value value="12"/>
                <unit value="h"/>
                <system value="http://unitsofmeasure.org"/>
                <code value="h"/>
              </denominator>
            </rateRatio>
          </doseAndRate>
        </dosageInstruction>
      </MedicationRequest>
    </resource>
  </entry>
</Bundle>