<?xml version="1.0" encoding="UTF-8"?>

<Bundle xmlns="http://hl7.org/fhir">
  <id value="TradPN13FHIR-Presc-Paracetamol"/>
  <meta>
    <profile value="https://hl7.fr/ig/fhir/medication/StructureDefinition/fr-prescription-bundle-for-example"/>
  </meta>
  <type value="searchset"/>
  <entry>
    <resource>
      <Patient>
        <id value="patient-TradPN13FHIR-Presc-Paracetamol"/>
        <meta>
          <profile value="https://hl7.fr/ig/fhir/core/StructureDefinition/fr-core-patient"/>
        </meta>
        <text>
          <status value="generated"/><div xmlns="http://www.w3.org/1999/xhtml"><a name="Patient_patient-TradPN13FHIR-Presc-Paracetamol"> </a><p class="res-header-id"><b>Generated Narrative: Patient patient-TradPN13FHIR-Presc-Paracetamol</b></p><a name="patient-TradPN13FHIR-Presc-Paracetamol"> </a><a name="hcpatient-TradPN13FHIR-Presc-Paracetamol"> </a><a name="patient-TradPN13FHIR-Presc-Paracetamol-en-US"> </a><div style="display: inline-block; background-color: #d9e0e7; padding: 6px; margin: 4px; border: 1px solid #8da1b4; border-radius: 5px; line-height: 60%"><p style="margin-bottom: 0px"/><p style="margin-bottom: 0px">Profile: <a href="https://hl7.fr/ig/fhir/core/2.1.0/StructureDefinition-fr-core-patient.html">FR Core Patient Profile</a></p></div><p style="border: 1px #661aff solid; background-color: #e6e6ff; padding: 10px;">AVION  (no stated gender), DoB: 1961-11-25 ( Patient internal identifier: 5000001820 (use: usual, ))</p><hr/><table class="grid"><tr><td style="background-color: #f3f5da" title="Alternate names (see the one above)">Alt. Name:</td><td colspan="3">JAUNE AVION (Official)</td></tr></table></div>
        </text>
        <identifier>
          <use value="usual"/>
          <type>
            <coding>
              <system value="http://terminology.hl7.org/CodeSystem/v2-0203"/>
              <code value="PI"/>
              <display value="Patient internal identifier"/>
            </coding>
          </type>
          <system value="https://somehospital.fr/IPP"/>
          <value value="5000001820"/>
        </identifier>
        <name>
          <use value="usual"/>
          <family value="AVION"/>
        </name>
        <name>
          <use value="official"/>
          <family value="AVION"/>
          <given value="JAUNE"/>
        </name>
        <birthDate value="1961-11-25"/>
      </Patient>
    </resource>
  </entry>
  <entry>
    <resource>
      <Practitioner>
        <id value="practitioner-TradPN13FHIR-Presc-Paracetamol"/>
        <meta>
          <profile value="https://hl7.fr/ig/fhir/core/StructureDefinition/fr-core-practitioner"/>
        </meta>
        <text>
          <status value="generated"/><div xmlns="http://www.w3.org/1999/xhtml"><a name="Practitioner_practitioner-TradPN13FHIR-Presc-Paracetamol"> </a><p class="res-header-id"><b>Generated Narrative: Practitioner practitioner-TradPN13FHIR-Presc-Paracetamol</b></p><a name="practitioner-TradPN13FHIR-Presc-Paracetamol"> </a><a name="hcpractitioner-TradPN13FHIR-Presc-Paracetamol"> </a><a name="practitioner-TradPN13FHIR-Presc-Paracetamol-en-US"> </a><div style="display: inline-block; background-color: #d9e0e7; padding: 6px; margin: 4px; border: 1px solid #8da1b4; border-radius: 5px; line-height: 60%"><p style="margin-bottom: 0px"/><p style="margin-bottom: 0px">Profile: <a href="https://hl7.fr/ig/fhir/core/2.1.0/StructureDefinition-fr-core-practitioner.html">FR Core Practitioner Profile</a></p></div><p><b>identifier</b>: Employee number/P082443</p><p><b>name</b>: DENIS LUIGGI , DENIS LUIGGI (Official)</p></div>
        </text>
        <identifier>
          <type>
            <coding>
              <system value="http://terminology.hl7.org/CodeSystem/v2-0203"/>
              <code value="EI"/>
            </coding>
          </type>
          <system value="https://somehospital.fr/EI"/>
          <value value="P082443"/>
        </identifier>
        <name>
          <use value="usual"/>
          <family value="LUIGGI"/>
          <given value="DENIS"/>
        </name>
        <name>
          <use value="official"/>
          <family value="LUIGGI"/>
          <given value="DENIS"/>
        </name>
      </Practitioner>
    </resource>
  </entry>
  <entry>
    <resource>
      <Medication>
        <id value="medication-TradPN13FHIR-Presc-Paracetamol"/>
        <meta>
          <profile value="https://hl7.fr/ig/fhir/medication/StructureDefinition/fr-medication-noncompound"/>
          <profile value="https://hl7.fr/fhir/fr/medication/StructureDefinition/fr-medication-noncompound"/>
        </meta>
        <text>
          <status value="generated"/><div xmlns="http://www.w3.org/1999/xhtml"><a name="Medication_medication-TradPN13FHIR-Presc-Paracetamol"> </a><p class="res-header-id"><b>Generated Narrative: Medication medication-TradPN13FHIR-Presc-Paracetamol</b></p><a name="medication-TradPN13FHIR-Presc-Paracetamol"> </a><a name="hcmedication-TradPN13FHIR-Presc-Paracetamol"> </a><a name="medication-TradPN13FHIR-Presc-Paracetamol-en-US"> </a><div style="display: inline-block; background-color: #d9e0e7; padding: 6px; margin: 4px; border: 1px solid #8da1b4; border-radius: 5px; line-height: 60%"><p style="margin-bottom: 0px"/><p style="margin-bottom: 0px">Profiles: <a href="StructureDefinition-fr-medication-noncompound.html">FrMedicationNonCompound</a>, <code>https://hl7.fr/fhir/fr/medication/StructureDefinition/fr-medication-noncompound</code></p></div><p><b>code</b>: <span title="Codes:{http://data.esante.gouv.fr/ansm/medicament/UCD 3400890006262}">PARACETAMOL MYLAN CONSEIL 1000 MG, COMPRIME</span></p><p><b>form</b>: <span title="Codes:{http://standardterms.edqm.eu 10219000}">Comprimé</span></p></div>
        </text>
        <code>
          <coding>
            <system value="http://data.esante.gouv.fr/ansm/medicament/UCD"/>
            <code value="3400890006262"/>
            <display value="PARACETAMOL VIC 1000MG CPR"/>
          </coding>
          <text value="PARACETAMOL MYLAN CONSEIL 1000 MG, COMPRIME"/>
        </code>
        <form>
          <coding>
            <system value="http://standardterms.edqm.eu"/>
            <code value="10219000"/>
            <display value="Comprimé"/>
          </coding>
        </form>
      </Medication>
    </resource>
  </entry>
  <entry>
    <resource>
      <Observation>
        <id value="observation-1-TradPN13FHIR-Presc-Paracetamol"/>
        <meta>
          <profile value="https://hl7.fr/ig/fhir/core/StructureDefinition/fr-core-observation-body-height"/>
        </meta>
        <text>
          <status value="generated"/><div xmlns="http://www.w3.org/1999/xhtml"><a name="Observation_observation-1-TradPN13FHIR-Presc-Paracetamol"> </a><p class="res-header-id"><b>Generated Narrative: Observation observation-1-TradPN13FHIR-Presc-Paracetamol</b></p><a name="observation-1-TradPN13FHIR-Presc-Paracetamol"> </a><a name="hcobservation-1-TradPN13FHIR-Presc-Paracetamol"> </a><a name="observation-1-TradPN13FHIR-Presc-Paracetamol-en-US"> </a><div style="display: inline-block; background-color: #d9e0e7; padding: 6px; margin: 4px; border: 1px solid #8da1b4; border-radius: 5px; line-height: 60%"><p style="margin-bottom: 0px"/><p style="margin-bottom: 0px">Profile: <a href="https://hl7.fr/ig/fhir/core/2.1.0/StructureDefinition-fr-core-observation-body-height.html">FR Core Observation Body Height Profile</a></p></div><p><b>status</b>: Final</p><p><b>category</b>: <span title="Codes:{http://terminology.hl7.org/CodeSystem/observation-category vital-signs}">Vital Signs</span></p><p><b>code</b>: <span title="Codes:{http://loinc.org 8302-2}">Body height</span></p><p><b>subject</b>: <code>#patient-TradPN13FHIR-Presc-Paracetamol</code></p><p><b>effective</b>: 2018-10-25 11:06:06+0200</p><p><b>value</b>: 189 cm<span style="background: LightGoldenRodYellow"> (Details: UCUM  codecm = 'cm')</span></p></div>
        </text>
        <status value="final"/>
        <category>
          <coding>
            <system value="http://terminology.hl7.org/CodeSystem/observation-category"/>
            <code value="vital-signs"/>
          </coding>
        </category>
        <code>
          <coding>
            <system value="http://loinc.org"/>
            <code value="8302-2"/>
          </coding>
        </code>
        <subject>
          <reference value="#patient-TradPN13FHIR-Presc-Paracetamol"/>
        </subject>
        <effectiveDateTime value="2018-10-25T11:06:06+02:00"/>
        <valueQuantity>
          <value value="189"/>
          <unit value="cm"/>
          <system value="http://unitsofmeasure.org"/>
          <code value="cm"/>
        </valueQuantity>
      </Observation>
    </resource>
  </entry>
  <entry>
    <resource>
      <Observation>
        <id value="observation-2-TradPN13FHIR-Presc-Paracetamol"/>
        <meta>
          <profile value="https://hl7.fr/ig/fhir/core/StructureDefinition/fr-core-observation-body-weight"/>
        </meta>
        <text>
          <status value="generated"/><div xmlns="http://www.w3.org/1999/xhtml"><a name="Observation_observation-2-TradPN13FHIR-Presc-Paracetamol"> </a><p class="res-header-id"><b>Generated Narrative: Observation observation-2-TradPN13FHIR-Presc-Paracetamol</b></p><a name="observation-2-TradPN13FHIR-Presc-Paracetamol"> </a><a name="hcobservation-2-TradPN13FHIR-Presc-Paracetamol"> </a><a name="observation-2-TradPN13FHIR-Presc-Paracetamol-en-US"> </a><div style="display: inline-block; background-color: #d9e0e7; padding: 6px; margin: 4px; border: 1px solid #8da1b4; border-radius: 5px; line-height: 60%"><p style="margin-bottom: 0px"/><p style="margin-bottom: 0px">Profile: <a href="https://hl7.fr/ig/fhir/core/2.1.0/StructureDefinition-fr-core-observation-body-weight.html">FR Core Observation Body Weight Profile</a></p></div><p><b>status</b>: Final</p><p><b>category</b>: <span title="Codes:{http://terminology.hl7.org/CodeSystem/observation-category vital-signs}">Vital Signs</span></p><p><b>code</b>: <span title="Codes:{http://loinc.org 29463-7}">Body weight</span></p><p><b>subject</b>: <code>#patient-TradPN13FHIR-Presc-Paracetamol</code></p><p><b>effective</b>: 2018-06-21 16:05:10+0200</p><p><b>value</b>: 120 kg<span style="background: LightGoldenRodYellow"> (Details: UCUM  codekg = 'kg')</span></p></div>
        </text>
        <status value="final"/>
        <category>
          <coding>
            <system value="http://terminology.hl7.org/CodeSystem/observation-category"/>
            <code value="vital-signs"/>
          </coding>
        </category>
        <code>
          <coding>
            <system value="http://loinc.org"/>
            <code value="29463-7"/>
          </coding>
        </code>
        <subject>
          <reference value="#patient-TradPN13FHIR-Presc-Paracetamol"/>
        </subject>
        <effectiveDateTime value="2018-06-21T16:05:10+02:00"/>
        <valueQuantity>
          <value value="120"/>
          <unit value="kg"/>
          <system value="http://unitsofmeasure.org"/>
          <code value="kg"/>
        </valueQuantity>
      </Observation>
    </resource>
  </entry>
  <entry>
    <resource>
      <MedicationRequest>
        <id value="medicationrequest-TradPN13FHIR-Presc-Paracetamol"/>
        <meta>
          <profile value="https://hl7.fr/ig/fhir/medication/StructureDefinition/fr-inpatient-medicationrequest"/>
          <profile value="https://hl7.fr/fhir/fr/medication/StructureDefinition/fr-inpatient-medicationrequest"/>
        </meta>
        <text>
          <status value="generated"/><div xmlns="http://www.w3.org/1999/xhtml"><a name="MedicationRequest_medicationrequest-TradPN13FHIR-Presc-Paracetamol"> </a><p class="res-header-id"><b>Generated Narrative: MedicationRequest medicationrequest-TradPN13FHIR-Presc-Paracetamol</b></p><a name="medicationrequest-TradPN13FHIR-Presc-Paracetamol"> </a><a name="hcmedicationrequest-TradPN13FHIR-Presc-Paracetamol"> </a><a name="medicationrequest-TradPN13FHIR-Presc-Paracetamol-en-US"> </a><div style="display: inline-block; background-color: #d9e0e7; padding: 6px; margin: 4px; border: 1px solid #8da1b4; border-radius: 5px; line-height: 60%"><p style="margin-bottom: 0px"/><p style="margin-bottom: 0px">Profiles: <a href="StructureDefinition-fr-inpatient-medicationrequest.html">FrInpatientMedicationRequest</a>, <code>https://hl7.fr/fhir/fr/medication/StructureDefinition/fr-inpatient-medicationrequest</code></p></div><p><b>identifier</b>: <code>https://somehospital.fr/PrescrptionLine-ID</code>/31626</p><p><b>status</b>: Active</p><p><b>intent</b>: Order</p><p><b>priority</b>: Routine</p><p><b>medication</b>: <code>#medication-TradPN13FHIR-Presc-Paracetamol</code></p><p><b>subject</b>: <code>#patient-TradPN13FHIR-Presc-Paracetamol</code></p><p><b>encounter</b>: Identifier: <code>https://somehospital.fr/Sejour</code>/70101274</p><p><b>supportingInformation</b>: </p><ul><li>Identifier: <code>https://somehospital.fr/UF</code>/2571</li><li><code>#observation-1-TradPN13FHIR-Presc-Paracetamol</code></li><li><code>#observation-2-TradPN13FHIR-Presc-Paracetamol</code></li></ul><p><b>authoredOn</b>: 2022-04-11 16:42:53+0200</p><p><b>requester</b>: <code>#practitioner-TradPN13FHIR-Presc-Paracetamol</code></p><p><b>groupIdentifier</b>: <code>https://somehospital.fr/Prescrption-ID</code>/10723</p><p><b>note</b>: **Prescritpion textuelle:** PARACETAMOL MYLAN CONSEIL 1000 MG, COMPRIME  (Voie orale) - A la demande :  1000 mg /prise,  4000 mg max/j,  respecter 6h entre 2 prises pendant 2 jours, **Indication:** Si douleur, **Commentaire:** Test paracetamol 2 (à la demande)</p><blockquote><p><b>dosageInstruction</b></p><p><b>timing</b>: Once per 6 hours</p><p><b>asNeeded</b>: true</p><p><b>route</b>: <span title="Codes:{http://standardterms.edqm.eu 20053000}">Voie orale</span></p><h3>DoseAndRates</h3><table class="grid"><tr><td style="display: none">-</td><td><b>Dose[x]</b></td></tr><tr><td style="display: none">*</td><td>1000 mg<span style="background: LightGoldenRodYellow"> (Details: UCUM  codemg = 'mg')</span></td></tr></table><p><b>maxDosePerPeriod</b>: 4000 mg<span style="background: LightGoldenRodYellow"> (Details: UCUM  codemg = 'mg')</span>/1 d<span style="background: LightGoldenRodYellow"> (Details: UCUM  coded = 'd')</span></p></blockquote></div>
        </text>
        <identifier>
          <system value="https://somehospital.fr/PrescrptionLine-ID"/>
          <value value="31626"/>
        </identifier>
        <status value="active"/>
        <intent value="order"/>
        <priority value="routine"/>
        <medicationReference>
          <reference value="#medication-TradPN13FHIR-Presc-Paracetamol"/>
        </medicationReference>
        <subject>
          <reference value="#patient-TradPN13FHIR-Presc-Paracetamol"/>
        </subject>
        <encounter>
          <identifier>
            <system value="https://somehospital.fr/Sejour"/>
            <value value="70101274"/>
          </identifier>
        </encounter>
        <supportingInformation>
          <extension url="https://hl7.fr/ig/fhir/medication/StructureDefinition/fr-uf-role">
            <valueCode value="UFMED"/>
          </extension>
          <identifier>
            <system value="https://somehospital.fr/UF"/>
            <value value="2571"/>
          </identifier>
        </supportingInformation>
        <supportingInformation>
          <reference value="#observation-1-TradPN13FHIR-Presc-Paracetamol"/>
        </supportingInformation>
        <supportingInformation>
          <reference value="#observation-2-TradPN13FHIR-Presc-Paracetamol"/>
        </supportingInformation>
        <authoredOn value="2022-04-11T16:42:53+02:00"/>
        <requester>
          <reference value="#practitioner-TradPN13FHIR-Presc-Paracetamol"/>
        </requester>
        <groupIdentifier>
          <system value="https://somehospital.fr/Prescrption-ID"/>
          <value value="10723"/>
        </groupIdentifier>
        <note>
          <extension url="https://hl7.fr/ig/fhir/medication/StructureDefinition/fr-medicationrequest-note-scope">
            <valueCode value="LIPRESCTXT"/>
          </extension>
          <text value="**Prescritpion textuelle:** PARACETAMOL MYLAN CONSEIL 1000 MG, COMPRIME  (Voie orale) - A la demande :  1000 mg /prise,  4000 mg max/j,  respecter 6h entre 2 prises pendant 2 jours"/>
        </note>
        <note>
          <extension url="https://hl7.fr/ig/fhir/medication/StructureDefinition/fr-medicationrequest-note-scope">
            <valueCode value="LIPRESCIND"/>
          </extension>
          <text value="**Indication:** Si douleur"/>
        </note>
        <note>
          <extension url="https://hl7.fr/ig/fhir/medication/StructureDefinition/fr-medicationrequest-note-scope">
            <valueCode value="LIPRESCCOMM"/>
          </extension>
          <text value="**Commentaire:** Test paracetamol 2 (à la demande)"/>
        </note>
        <dosageInstruction>
          <timing>
            <repeat>
              <boundsPeriod>
                <start value="2022-04-12T06:00:00+02:00"/>
                <end value="2022-04-15T00:00:00+02:00"/>
              </boundsPeriod>
              <frequencyMax value="1"/>
              <period value="6"/>
              <periodUnit value="h"/>
            </repeat>
          </timing>
          <asNeededBoolean value="true"/>
          <route>
            <coding>
              <system value="http://standardterms.edqm.eu"/>
              <code value="20053000"/>
              <display value="Voie orale"/>
            </coding>
          </route>
          <doseAndRate>
            <doseQuantity>
              <value value="1000"/>
              <unit value="mg"/>
              <system value="http://unitsofmeasure.org"/>
              <code value="mg"/>
            </doseQuantity>
          </doseAndRate>
          <maxDosePerPeriod>
            <numerator>
              <value value="4000"/>
              <unit value="mg"/>
              <system value="http://unitsofmeasure.org"/>
              <code value="mg"/>
            </numerator>
            <denominator>
              <value value="1"/>
              <system value="http://unitsofmeasure.org"/>
              <code value="d"/>
            </denominator>
          </maxDosePerPeriod>
        </dosageInstruction>
      </MedicationRequest>
    </resource>
  </entry>
</Bundle>