{
  "resourceType" : "Bundle",
  "id" : "HAS-4-Presc-Paracetamol-DAFALGANCODEINE",
  "meta" : {
    "profile" : ["https://hl7.fr/fhir/fr/medication/StructureDefinition/fr-prescription-bundle-for-example"]
  },
  "type" : "searchset",
  "entry" : [{
    "resource" : {
      "resourceType" : "Patient",
      "id" : "patient-HAS-4-Presc-Paracetamol-DAFALGANCODEINE",
      "meta" : {
        "profile" : ["https://hl7.fr/ig/fhir/core/StructureDefinition/fr-core-patient-ins"]
      },
      "text" : {
        "status" : "generated",
        "div" : "<div xmlns=\"http://www.w3.org/1999/xhtml\"><a name=\"Patient_patient-HAS-4-Presc-Paracetamol-DAFALGANCODEINE\"> </a><p class=\"res-header-id\"><b>Generated Narrative: Patient patient-HAS-4-Presc-Paracetamol-DAFALGANCODEINE</b></p><a name=\"patient-HAS-4-Presc-Paracetamol-DAFALGANCODEINE\"> </a><a name=\"hcpatient-HAS-4-Presc-Paracetamol-DAFALGANCODEINE\"> </a><div style=\"display: inline-block; background-color: #d9e0e7; padding: 6px; margin: 4px; border: 1px solid #8da1b4; border-radius: 5px; line-height: 60%\"><p style=\"margin-bottom: 0px\"/><p style=\"margin-bottom: 0px\">Profile: <a href=\"https://hl7.fr/ig/fhir/core/2.1.0/StructureDefinition-fr-core-patient-ins.html\">FR Core Patient INS Profile</a></p></div><p style=\"border: 1px #661aff solid; background-color: #e6e6ff; padding: 10px;\">ARASGAIN  Female, DoB: 1989-01-02 ( Identifiant interne: 6032486\u00a0(use:\u00a0usual,\u00a0))</p><hr/><table class=\"grid\"><tr><td style=\"background-color: #f3f5da\" title=\"Other Id (see the one above)\">Other Id:</td><td colspan=\"3\">NIR définitif/289062913400149\u00a0(use:\u00a0official,\u00a0)</td></tr><tr><td style=\"background-color: #f3f5da\" title=\"Alternate names (see the one above)\">Alt. Name:</td><td colspan=\"3\">MARSALI CUIMEANACH (Official)</td></tr><tr><td style=\"background-color: #f3f5da\" title=\"The registered place of birth of the patient. A sytem may use the address.text if they don't store the birthPlace address in discrete elements.\"><a href=\"http://hl7.org/fhir/extensions/5.2.0/StructureDefinition-patient-birthPlace.html\">Patient Birth Place</a></td><td colspan=\"3\"></td></tr><tr><td style=\"background-color: #f3f5da\" title=\"Reliabilility of the patient's identity | Précision sur le degré de fiabilité de l'identité du patient (si provisoire, validé... avec la justification : quelle type de pièce d'identité ?) avec la méthode de collection\">FR Core Patient Ident Reliability Extension:</td><td colspan=\"3\"><ul><li>identityStatus: <a href=\"https://hl7.fr/ig/fhir/core/2.1.0/CodeSystem-fr-core-cs-v2-0445.html#fr-core-cs-v2-0445-VALI\">FR Core CodeSystem v2-0445 VALI</a>: Identité validée</li></ul></td></tr></table></div>"
      },
      "extension" : [{
        "extension" : [{
          "url" : "identityStatus",
          "valueCoding" : {
            "system" : "https://hl7.fr/ig/fhir/core/CodeSystem/fr-core-cs-v2-0445",
            "code" : "VALI"
          }
        }],
        "url" : "https://hl7.fr/ig/fhir/core/StructureDefinition/fr-core-identity-reliability"
      },
      {
        "url" : "http://hl7.org/fhir/StructureDefinition/patient-birthPlace",
        "valueAddress" : {
          "extension" : [{
            "url" : "https://hl7.fr/ig/fhir/core/StructureDefinition/fr-core-address-insee-code",
            "valueCoding" : {
              "system" : "https://mos.esante.gouv.fr/NOS/TRE_R13-Commune/FHIR/TRE-R13-Commune",
              "code" : "29134"
            }
          }]
        }
      }],
      "identifier" : [{
        "use" : "official",
        "type" : {
          "coding" : [{
            "system" : "https://hl7.fr/ig/fhir/core/CodeSystem/fr-core-cs-v2-0203",
            "code" : "INS-NIR",
            "display" : "NIR définitif"
          }]
        },
        "system" : "urn:oid:1.2.250.1.213.1.4.8",
        "value" : "289062913400149"
      },
      {
        "use" : "usual",
        "type" : {
          "coding" : [{
            "system" : "https://hl7.fr/ig/fhir/core/CodeSystem/fr-core-cs-v2-0203",
            "code" : "INTRN",
            "display" : "Identifiant interne"
          }]
        },
        "system" : "urn:oid:1.2.250.1.507454354.43654.2346659",
        "value" : "6032486"
      }],
      "name" : [{
        "use" : "usual",
        "family" : "ARASGAIN"
      },
      {
        "extension" : [{
          "url" : "https://hl7.fr/ig/fhir/core/StructureDefinition/fr-core-patient-birth-list-given-name",
          "valueString" : "MARSALI MORAG MAIREAD"
        }],
        "use" : "official",
        "family" : "CUIMEANACH",
        "given" : ["MARSALI"]
      }],
      "gender" : "female",
      "birthDate" : "1989-01-02"
    }
  },
  {
    "resource" : {
      "resourceType" : "MedicationRequest",
      "id" : "medicationrequest-HAS-4-Presc-Paracetamol",
      "meta" : {
        "profile" : ["https://hl7.fr/fhir/fr/medication/StructureDefinition/fr-inpatient-medicationrequest"]
      },
      "text" : {
        "status" : "generated",
        "div" : "<div xmlns=\"http://www.w3.org/1999/xhtml\"><a name=\"MedicationRequest_medicationrequest-HAS-4-Presc-Paracetamol\"> </a><p class=\"res-header-id\"><b>Generated Narrative: MedicationRequest medicationrequest-HAS-4-Presc-Paracetamol</b></p><a name=\"medicationrequest-HAS-4-Presc-Paracetamol\"> </a><a name=\"hcmedicationrequest-HAS-4-Presc-Paracetamol\"> </a><div style=\"display: inline-block; background-color: #d9e0e7; padding: 6px; margin: 4px; border: 1px solid #8da1b4; border-radius: 5px; line-height: 60%\"><p style=\"margin-bottom: 0px\"/><p style=\"margin-bottom: 0px\">Profile: <a href=\"StructureDefinition-fr-inpatient-medicationrequest.html\">FrInpatientMedicationRequest</a></p></div><p><b>identifier</b>: https://somehospital.fr/Medication-ID</p><p><b>status</b>: Active</p><p><b>intent</b>: Order</p><p><b>priority</b>: Routine</p><p><b>medication</b>: <span title=\"Codes:{http://BogusSystemMedicabase.com MV00000557}\">PARACETAMOL 500 mg gélule</span></p><p><b>subject</b>: <code>#patient-HAS-4-Presc-Paracetamol-DAFALGANCODEINE</code></p><p><b>encounter</b>: Identifier: <code>https://somehospital.fr/Sejour</code>/S2025060612345</p><p><b>supportingInformation</b>: </p><ul><li>Identifier: <code>https://somehospital.fr/UF</code>/603</li><li>Identifier: <code>https://somehospital.fr/UF</code>/506</li></ul><p><b>authoredOn</b>: 2025-06-06 14:48:44+0200</p><p><b>requester</b>: Identifier: <code>urn:oid:1.2.250.1.71.4.2.1</code>/899999999999</p><p><b>groupIdentifier</b>: <code>https://somehospital.fr/Prescrption-ID</code>/Presc-HAS-4</p><p><b>note</b>: </p><blockquote><div><p>Prescription textuelle: Prescription textuelle: PARACETAMOL 500mg gélule - 2 gélules toutes les 6 h pendant 10 jours si douleurs</p>\n</div></blockquote><blockquote><p><b>dosageInstruction</b></p><p><b>timing</b>: Once per 6 hours</p><p><b>asNeeded</b>: <span title=\"Codes:{http://snomed.info/sct 22253000}\">Si douleurs</span></p><h3>DoseAndRates</h3><table class=\"grid\"><tr><td style=\"display: none\">-</td><td><b>Dose[x]</b></td></tr><tr><td style=\"display: none\">*</td><td>2 gélule ou capsule molle<span style=\"background: LightGoldenRodYellow\"> (Details: standardterms.edqm.eu  code15012000 = 'Capsule')</span></td></tr></table></blockquote></div>"
      },
      "identifier" : [{
        "value" : "https://somehospital.fr/Medication-ID"
      }],
      "status" : "active",
      "intent" : "order",
      "priority" : "routine",
      "medicationCodeableConcept" : {
        "coding" : [{
          "system" : "http://BogusSystemMedicabase.com",
          "code" : "MV00000557",
          "display" : "PARACETAMOL 500 mg gélule"
        }]
      },
      "subject" : {
        "reference" : "#patient-HAS-4-Presc-Paracetamol-DAFALGANCODEINE"
      },
      "encounter" : {
        "identifier" : {
          "system" : "https://somehospital.fr/Sejour",
          "value" : "S2025060612345"
        }
      },
      "supportingInformation" : [{
        "extension" : [{
          "url" : "https://hl7.fr/fhir/fr/medication/StructureDefinition/fr-uf-role",
          "valueCode" : "UFHEB"
        }],
        "type" : "Organization",
        "identifier" : {
          "system" : "https://somehospital.fr/UF",
          "value" : "603"
        }
      },
      {
        "extension" : [{
          "url" : "https://hl7.fr/fhir/fr/medication/StructureDefinition/fr-uf-role",
          "valueCode" : "UFMED"
        }],
        "type" : "Organization",
        "identifier" : {
          "system" : "https://somehospital.fr/UF",
          "value" : "506"
        }
      }],
      "authoredOn" : "2025-06-06T14:48:44+02:00",
      "requester" : {
        "identifier" : {
          "system" : "urn:oid:1.2.250.1.71.4.2.1",
          "value" : "899999999999"
        }
      },
      "groupIdentifier" : {
        "system" : "https://somehospital.fr/Prescrption-ID",
        "value" : "Presc-HAS-4"
      },
      "note" : [{
        "extension" : [{
          "url" : "https://hl7.fr/fhir/fr/medication/StructureDefinition/fr-medicationrequest-note-scope",
          "valueCode" : "LIPRESCTXT"
        }],
        "text" : "Prescription textuelle: Prescription textuelle: PARACETAMOL 500mg gélule - 2 gélules toutes les 6 h pendant 10 jours si douleurs"
      }],
      "dosageInstruction" : [{
        "timing" : {
          "repeat" : {
            "boundsDuration" : {
              "value" : 10,
              "unit" : "jour",
              "system" : "http://unitsofmeasure.org",
              "code" : "d"
            },
            "frequency" : 1,
            "period" : 6,
            "periodUnit" : "h"
          }
        },
        "asNeededCodeableConcept" : {
          "coding" : [{
            "system" : "http://snomed.info/sct",
            "code" : "22253000",
            "display" : "douleur"
          }],
          "text" : "Si douleurs"
        },
        "doseAndRate" : [{
          "doseQuantity" : {
            "value" : 2,
            "unit" : "gélule ou capsule molle",
            "system" : "http://standardterms.edqm.eu",
            "code" : "15012000"
          }
        }]
      }]
    }
  },
  {
    "resource" : {
      "resourceType" : "MedicationRequest",
      "id" : "medicationrequest-HAS-4-Presc-DAFALGANCODEINE",
      "meta" : {
        "profile" : ["https://hl7.fr/fhir/fr/medication/StructureDefinition/fr-inpatient-medicationrequest",
        "https://hl7.fr/fhir/fr/medication/StructureDefinition/fr-inpatient-medicationrequest-exclusion"]
      },
      "text" : {
        "status" : "generated",
        "div" : "<div xmlns=\"http://www.w3.org/1999/xhtml\"><a name=\"MedicationRequest_medicationrequest-HAS-4-Presc-DAFALGANCODEINE\"> </a><p class=\"res-header-id\"><b>Generated Narrative: MedicationRequest medicationrequest-HAS-4-Presc-DAFALGANCODEINE</b></p><a name=\"medicationrequest-HAS-4-Presc-DAFALGANCODEINE\"> </a><a name=\"hcmedicationrequest-HAS-4-Presc-DAFALGANCODEINE\"> </a><div style=\"display: inline-block; background-color: #d9e0e7; padding: 6px; margin: 4px; border: 1px solid #8da1b4; border-radius: 5px; line-height: 60%\"><p style=\"margin-bottom: 0px\"/><p style=\"margin-bottom: 0px\">Profiles: <a href=\"StructureDefinition-fr-inpatient-medicationrequest.html\">FrInpatientMedicationRequest</a>, <a href=\"StructureDefinition-fr-inpatient-medicationrequest-exclusion.html\">FrInpatientMedicationRequestExclusion</a></p></div><p><b>identifier</b>: https://somehospital.fr/Medication-ID</p><p><b>status</b>: Active</p><p><b>intent</b>: Option</p><p><b>priority</b>: Routine</p><p><b>medication</b>: <span title=\"Codes:{http://data.esante.gouv.fr/ansm/medicament/UCD 3400891479287}\">DAFALGAN CODEINE CPR</span></p><p><b>subject</b>: <code>#patient-HAS-4-Presc-Paracetamol-DAFALGANCODEINE</code></p><p><b>encounter</b>: Identifier: <code>https://somehospital.fr/Sejour</code>/S2025060612345</p><p><b>supportingInformation</b>: </p><ul><li>Identifier: <code>https://somehospital.fr/UF</code>/603</li><li>Identifier: <code>https://somehospital.fr/UF</code>/506</li></ul><p><b>authoredOn</b>: 2025-06-06 14:48:44+0200</p><p><b>requester</b>: Identifier: <code>urn:oid:1.2.250.1.71.4.2.1</code>/899999999999</p><p><b>groupIdentifier</b>: <code>https://somehospital.fr/Prescrption-ID</code>/Presc-HAS-4</p><p><b>note</b>: </p><blockquote><div><p>Prescription textuelle: DAFALGAN CODEINE®, comprimé : un à deux comprimés toutes les 12 h pendant 10 jours  si paracétamol  seul insuffisant, avec un maximum à 2 comprimés par prise et de 4 comprimés par jour . STOP SI NAUSEES.</p>\n</div></blockquote><blockquote><p><b>dosageInstruction</b></p><p><b>timing</b>: Once per 12 hours</p><h3>DoseAndRates</h3><table class=\"grid\"><tr><td style=\"display: none\">-</td><td><b>Dose[x]</b></td></tr><tr><td style=\"display: none\">*</td><td>1 Comprimé<span style=\"background: LightGoldenRodYellow\"> (Details: standardterms.edqm.eu  code15054000 = 'Tablet')</span></td></tr></table><p><b>maxDosePerAdministration</b>: 2 Comprimé<span style=\"background: LightGoldenRodYellow\"> (Details: standardterms.edqm.eu  code15054000 = 'Tablet')</span></p></blockquote></div>"
      },
      "identifier" : [{
        "value" : "https://somehospital.fr/Medication-ID"
      }],
      "status" : "active",
      "intent" : "option",
      "priority" : "routine",
      "medicationCodeableConcept" : {
        "coding" : [{
          "system" : "http://data.esante.gouv.fr/ansm/medicament/UCD",
          "code" : "3400891479287",
          "display" : "DAFALGAN CODEINE CPR"
        }]
      },
      "subject" : {
        "reference" : "#patient-HAS-4-Presc-Paracetamol-DAFALGANCODEINE"
      },
      "encounter" : {
        "identifier" : {
          "system" : "https://somehospital.fr/Sejour",
          "value" : "S2025060612345"
        }
      },
      "supportingInformation" : [{
        "extension" : [{
          "url" : "https://hl7.fr/fhir/fr/medication/StructureDefinition/fr-uf-role",
          "valueCode" : "UFHEB"
        }],
        "type" : "Organization",
        "identifier" : {
          "system" : "https://somehospital.fr/UF",
          "value" : "603"
        }
      },
      {
        "extension" : [{
          "url" : "https://hl7.fr/fhir/fr/medication/StructureDefinition/fr-uf-role",
          "valueCode" : "UFMED"
        }],
        "type" : "Organization",
        "identifier" : {
          "system" : "https://somehospital.fr/UF",
          "value" : "506"
        }
      }],
      "authoredOn" : "2025-06-06T14:48:44+02:00",
      "requester" : {
        "identifier" : {
          "system" : "urn:oid:1.2.250.1.71.4.2.1",
          "value" : "899999999999"
        }
      },
      "groupIdentifier" : {
        "system" : "https://somehospital.fr/Prescrption-ID",
        "value" : "Presc-HAS-4"
      },
      "note" : [{
        "extension" : [{
          "url" : "https://hl7.fr/fhir/fr/medication/StructureDefinition/fr-medicationrequest-note-scope",
          "valueCode" : "LIPRESCTXT"
        }],
        "text" : "Prescription textuelle: DAFALGAN CODEINE®, comprimé : un à deux comprimés toutes les 12 h pendant 10 jours  si paracétamol  seul insuffisant, avec un maximum à 2 comprimés par prise et de 4 comprimés par jour . STOP SI NAUSEES."
      }],
      "dosageInstruction" : [{
        "timing" : {
          "repeat" : {
            "boundsDuration" : {
              "value" : 10,
              "unit" : "jour",
              "system" : "http://unitsofmeasure.org",
              "code" : "d"
            },
            "frequency" : 1,
            "period" : 12,
            "periodUnit" : "h"
          }
        },
        "doseAndRate" : [{
          "doseQuantity" : {
            "value" : 1,
            "unit" : "Comprimé",
            "system" : "http://standardterms.edqm.eu",
            "code" : "15054000"
          }
        }],
        "maxDosePerAdministration" : {
          "value" : 2,
          "unit" : "Comprimé",
          "system" : "http://standardterms.edqm.eu",
          "code" : "15054000"
        }
      }]
    }
  },
  {
    "resource" : {
      "resourceType" : "RequestGroup",
      "id" : "requestgroup-HAS-4-Presc-Paracetamol-DAFALGANCODEINE",
      "meta" : {
        "profile" : ["https://hl7.fr/fhir/fr/medication/StructureDefinition/fr-requestgroup-for-prescription"]
      },
      "text" : {
        "status" : "generated",
        "div" : "<div xmlns=\"http://www.w3.org/1999/xhtml\"><a name=\"RequestGroup_requestgroup-HAS-4-Presc-Paracetamol-DAFALGANCODEINE\"> </a><p class=\"res-header-id\"><b>Generated Narrative: RequestGroup requestgroup-HAS-4-Presc-Paracetamol-DAFALGANCODEINE</b></p><a name=\"requestgroup-HAS-4-Presc-Paracetamol-DAFALGANCODEINE\"> </a><a name=\"hcrequestgroup-HAS-4-Presc-Paracetamol-DAFALGANCODEINE\"> </a><div style=\"display: inline-block; background-color: #d9e0e7; padding: 6px; margin: 4px; border: 1px solid #8da1b4; border-radius: 5px; line-height: 60%\"><p style=\"margin-bottom: 0px\"/><p style=\"margin-bottom: 0px\">Profile: <a href=\"StructureDefinition-fr-requestgroup-for-prescription.html\">FrRequestGroupForPrescrption</a></p></div><p><b>groupIdentifier</b>: <code>https://somehospital.fr/Prescrption-ID</code>/Presc-HAS-4</p><p><b>status</b>: Active</p><p><b>intent</b>: Order</p><p><b>priority</b>: Routine</p><p><b>subject</b>: <code>#patient-HAS-4-Presc-Paracetamol-DAFALGANCODEINE</code></p><blockquote><p><b>action</b></p><blockquote><p><b>id</b></p>A202506061</blockquote><p><b>selectionBehavior</b>: Exactly One</p><blockquote><p><b>action</b></p><blockquote><p><b>id</b></p>20250606144844570</blockquote><p><b>description</b>: si paracétamol insuffisant</p><p><b>resource</b>: <code>#medicationrequest-HAS-4-Presc-DAFALGANCODEINE</code></p></blockquote><blockquote><p><b>action</b></p><blockquote><p><b>id</b></p>20250606144844569</blockquote><p><b>resource</b>: <code>#medicationrequest-HAS-4-Presc-Paracetamol</code></p></blockquote></blockquote><blockquote><p><b>action</b></p><blockquote><p><b>id</b></p>A202506062</blockquote><p><b>description</b>: STOP SI NAUSEES</p><h3>Conditions</h3><table class=\"grid\"><tr><td style=\"display: none\">-</td><td><b>Kind</b></td></tr><tr><td style=\"display: none\">*</td><td>Stop</td></tr></table><p><b>resource</b>: <code>#medicationrequest-HAS-4-Presc-DAFALGANCODEINE</code></p></blockquote></div>"
      },
      "groupIdentifier" : {
        "system" : "https://somehospital.fr/Prescrption-ID",
        "value" : "Presc-HAS-4"
      },
      "status" : "active",
      "intent" : "order",
      "priority" : "routine",
      "subject" : {
        "reference" : "#patient-HAS-4-Presc-Paracetamol-DAFALGANCODEINE"
      },
      "action" : [{
        "id" : "A202506061",
        "selectionBehavior" : "exactly-one",
        "action" : [{
          "id" : "20250606144844570",
          "description" : "si paracétamol insuffisant",
          "resource" : {
            "reference" : "#medicationrequest-HAS-4-Presc-DAFALGANCODEINE"
          }
        },
        {
          "id" : "20250606144844569",
          "resource" : {
            "reference" : "#medicationrequest-HAS-4-Presc-Paracetamol"
          }
        }]
      },
      {
        "id" : "A202506062",
        "description" : "STOP SI NAUSEES",
        "condition" : [{
          "kind" : "stop"
        }],
        "resource" : {
          "reference" : "#medicationrequest-HAS-4-Presc-DAFALGANCODEINE"
        }
      }]
    }
  }]
}