<?xml version="1.0" encoding="UTF-8"?>

<Bundle xmlns="http://hl7.org/fhir">
  <id value="HAS-4-Presc-Paracetamol-DAFALGANCODEINE"/>
  <meta>
    <profile value="https://hl7.fr/fhir/fr/medication/StructureDefinition/fr-prescription-bundle-for-example"/>
  </meta>
  <type value="searchset"/>
  <entry>
    <resource>
      <Patient>
        <id value="patient-HAS-4-Presc-Paracetamol-DAFALGANCODEINE"/>
        <meta>
          <profile value="https://hl7.fr/ig/fhir/core/StructureDefinition/fr-core-patient-ins"/>
        </meta>
        <text>
          <status value="generated"/><div xmlns="http://www.w3.org/1999/xhtml"><a name="Patient_patient-HAS-4-Presc-Paracetamol-DAFALGANCODEINE"> </a><p class="res-header-id"><b>Generated Narrative: Patient patient-HAS-4-Presc-Paracetamol-DAFALGANCODEINE</b></p><a name="patient-HAS-4-Presc-Paracetamol-DAFALGANCODEINE"> </a><a name="hcpatient-HAS-4-Presc-Paracetamol-DAFALGANCODEINE"> </a><div style="display: inline-block; background-color: #d9e0e7; padding: 6px; margin: 4px; border: 1px solid #8da1b4; border-radius: 5px; line-height: 60%"><p style="margin-bottom: 0px"/><p style="margin-bottom: 0px">Profile: <a href="https://hl7.fr/ig/fhir/core/2.1.0/StructureDefinition-fr-core-patient-ins.html">FR Core Patient INS Profile</a></p></div><p style="border: 1px #661aff solid; background-color: #e6e6ff; padding: 10px;">ARASGAIN  Female, DoB: 1989-01-02 ( Identifiant interne: 6032486 (use: usual, ))</p><hr/><table class="grid"><tr><td style="background-color: #f3f5da" title="Other Id (see the one above)">Other Id:</td><td colspan="3">NIR définitif/289062913400149 (use: official, )</td></tr><tr><td style="background-color: #f3f5da" title="Alternate names (see the one above)">Alt. Name:</td><td colspan="3">MARSALI CUIMEANACH (Official)</td></tr><tr><td style="background-color: #f3f5da" title="The registered place of birth of the patient. A sytem may use the address.text if they don't store the birthPlace address in discrete elements."><a href="http://hl7.org/fhir/extensions/5.2.0/StructureDefinition-patient-birthPlace.html">Patient Birth Place</a></td><td colspan="3"></td></tr><tr><td style="background-color: #f3f5da" title="Reliabilility of the patient's identity | Précision sur le degré de fiabilité de l'identité du patient (si provisoire, validé... avec la justification : quelle type de pièce d'identité ?) avec la méthode de collection">FR Core Patient Ident Reliability Extension:</td><td colspan="3"><ul><li>identityStatus: <a href="https://hl7.fr/ig/fhir/core/2.1.0/CodeSystem-fr-core-cs-v2-0445.html#fr-core-cs-v2-0445-VALI">FR Core CodeSystem v2-0445 VALI</a>: Identité validée</li></ul></td></tr></table></div>
        </text>
        <extension url="https://hl7.fr/ig/fhir/core/StructureDefinition/fr-core-identity-reliability">
          <extension url="identityStatus">
            <valueCoding>
              <system value="https://hl7.fr/ig/fhir/core/CodeSystem/fr-core-cs-v2-0445"/>
              <code value="VALI"/>
            </valueCoding>
          </extension>
        </extension>
        <extension url="http://hl7.org/fhir/StructureDefinition/patient-birthPlace">
          <valueAddress>
            <extension url="https://hl7.fr/ig/fhir/core/StructureDefinition/fr-core-address-insee-code">
              <valueCoding>
                <system value="https://mos.esante.gouv.fr/NOS/TRE_R13-Commune/FHIR/TRE-R13-Commune"/>
                <code value="29134"/>
              </valueCoding>
            </extension>
          </valueAddress>
        </extension>
        <identifier>
          <use value="official"/>
          <type>
            <coding>
              <system value="https://hl7.fr/ig/fhir/core/CodeSystem/fr-core-cs-v2-0203"/>
              <code value="INS-NIR"/>
              <display value="NIR définitif"/>
            </coding>
          </type>
          <system value="urn:oid:1.2.250.1.213.1.4.8"/>
          <value value="289062913400149"/>
        </identifier>
        <identifier>
          <use value="usual"/>
          <type>
            <coding>
              <system value="https://hl7.fr/ig/fhir/core/CodeSystem/fr-core-cs-v2-0203"/>
              <code value="INTRN"/>
              <display value="Identifiant interne"/>
            </coding>
          </type>
          <system value="urn:oid:1.2.250.1.507454354.43654.2346659"/>
          <value value="6032486"/>
        </identifier>
        <name>
          <use value="usual"/>
          <family value="ARASGAIN"/>
        </name>
        <name>
          <extension url="https://hl7.fr/ig/fhir/core/StructureDefinition/fr-core-patient-birth-list-given-name">
            <valueString value="MARSALI MORAG MAIREAD"/>
          </extension>
          <use value="official"/>
          <family value="CUIMEANACH"/>
          <given value="MARSALI"/>
        </name>
        <gender value="female"/>
        <birthDate value="1989-01-02"/>
      </Patient>
    </resource>
  </entry>
  <entry>
    <resource>
      <MedicationRequest>
        <id value="medicationrequest-HAS-4-Presc-Paracetamol"/>
        <meta>
          <profile value="https://hl7.fr/fhir/fr/medication/StructureDefinition/fr-inpatient-medicationrequest"/>
        </meta>
        <text>
          <status value="generated"/><div xmlns="http://www.w3.org/1999/xhtml"><a name="MedicationRequest_medicationrequest-HAS-4-Presc-Paracetamol"> </a><p class="res-header-id"><b>Generated Narrative: MedicationRequest medicationrequest-HAS-4-Presc-Paracetamol</b></p><a name="medicationrequest-HAS-4-Presc-Paracetamol"> </a><a name="hcmedicationrequest-HAS-4-Presc-Paracetamol"> </a><div style="display: inline-block; background-color: #d9e0e7; padding: 6px; margin: 4px; border: 1px solid #8da1b4; border-radius: 5px; line-height: 60%"><p style="margin-bottom: 0px"/><p style="margin-bottom: 0px">Profile: <a href="StructureDefinition-fr-inpatient-medicationrequest.html">FrInpatientMedicationRequest</a></p></div><p><b>identifier</b>: https://somehospital.fr/Medication-ID</p><p><b>status</b>: Active</p><p><b>intent</b>: Order</p><p><b>priority</b>: Routine</p><p><b>medication</b>: <span title="Codes:{http://BogusSystemMedicabase.com MV00000557}">PARACETAMOL 500 mg gélule</span></p><p><b>subject</b>: <code>#patient-HAS-4-Presc-Paracetamol-DAFALGANCODEINE</code></p><p><b>encounter</b>: Identifier: <code>https://somehospital.fr/Sejour</code>/S2025060612345</p><p><b>supportingInformation</b>: </p><ul><li>Identifier: <code>https://somehospital.fr/UF</code>/603</li><li>Identifier: <code>https://somehospital.fr/UF</code>/506</li></ul><p><b>authoredOn</b>: 2025-06-06 14:48:44+0200</p><p><b>requester</b>: Identifier: <code>urn:oid:1.2.250.1.71.4.2.1</code>/899999999999</p><p><b>groupIdentifier</b>: <code>https://somehospital.fr/Prescrption-ID</code>/Presc-HAS-4</p><p><b>note</b>: </p><blockquote><div><p>Prescription textuelle: Prescription textuelle: PARACETAMOL 500mg gélule - 2 gélules toutes les 6 h pendant 10 jours si douleurs</p>
</div></blockquote><blockquote><p><b>dosageInstruction</b></p><p><b>timing</b>: Once per 6 hours</p><p><b>asNeeded</b>: <span title="Codes:{http://snomed.info/sct 22253000}">Si douleurs</span></p><h3>DoseAndRates</h3><table class="grid"><tr><td style="display: none">-</td><td><b>Dose[x]</b></td></tr><tr><td style="display: none">*</td><td>2 gélule ou capsule molle<span style="background: LightGoldenRodYellow"> (Details: standardterms.edqm.eu  code15012000 = 'Capsule')</span></td></tr></table></blockquote></div>
        </text>
        <identifier>
          <value value="https://somehospital.fr/Medication-ID"/>
        </identifier>
        <status value="active"/>
        <intent value="order"/>
        <priority value="routine"/>
        <medicationCodeableConcept>
          <coding>
            <system value="http://BogusSystemMedicabase.com"/>
            <code value="MV00000557"/>
            <display value="PARACETAMOL 500 mg gélule"/>
          </coding>
        </medicationCodeableConcept>
        <subject>
          <reference value="#patient-HAS-4-Presc-Paracetamol-DAFALGANCODEINE"/>
        </subject>
        <encounter>
          <identifier>
            <system value="https://somehospital.fr/Sejour"/>
            <value value="S2025060612345"/>
          </identifier>
        </encounter>
        <supportingInformation>
          <extension url="https://hl7.fr/fhir/fr/medication/StructureDefinition/fr-uf-role">
            <valueCode value="UFHEB"/>
          </extension>
          <type value="Organization"/>
          <identifier>
            <system value="https://somehospital.fr/UF"/>
            <value value="603"/>
          </identifier>
        </supportingInformation>
        <supportingInformation>
          <extension url="https://hl7.fr/fhir/fr/medication/StructureDefinition/fr-uf-role">
            <valueCode value="UFMED"/>
          </extension>
          <type value="Organization"/>
          <identifier>
            <system value="https://somehospital.fr/UF"/>
            <value value="506"/>
          </identifier>
        </supportingInformation>
        <authoredOn value="2025-06-06T14:48:44+02:00"/>
        <requester>
          <identifier>
            <system value="urn:oid:1.2.250.1.71.4.2.1"/>
            <value value="899999999999"/>
          </identifier>
        </requester>
        <groupIdentifier>
          <system value="https://somehospital.fr/Prescrption-ID"/>
          <value value="Presc-HAS-4"/>
        </groupIdentifier>
        <note>
          <extension url="https://hl7.fr/fhir/fr/medication/StructureDefinition/fr-medicationrequest-note-scope">
            <valueCode value="LIPRESCTXT"/>
          </extension>
          <text value="Prescription textuelle: Prescription textuelle: PARACETAMOL 500mg gélule - 2 gélules toutes les 6 h pendant 10 jours si douleurs"/>
        </note>
        <dosageInstruction>
          <timing>
            <repeat>
              <boundsDuration>
                <value value="10"/>
                <unit value="jour"/>
                <system value="http://unitsofmeasure.org"/>
                <code value="d"/>
              </boundsDuration>
              <frequency value="1"/>
              <period value="6"/>
              <periodUnit value="h"/>
            </repeat>
          </timing>
          <asNeededCodeableConcept>
            <coding>
              <system value="http://snomed.info/sct"/>
              <code value="22253000"/>
              <display value="douleur"/>
            </coding>
            <text value="Si douleurs"/>
          </asNeededCodeableConcept>
          <doseAndRate>
            <doseQuantity>
              <value value="2"/>
              <unit value="gélule ou capsule molle"/>
              <system value="http://standardterms.edqm.eu"/>
              <code value="15012000"/>
            </doseQuantity>
          </doseAndRate>
        </dosageInstruction>
      </MedicationRequest>
    </resource>
  </entry>
  <entry>
    <resource>
      <MedicationRequest>
        <id value="medicationrequest-HAS-4-Presc-DAFALGANCODEINE"/>
        <meta>
          <profile value="https://hl7.fr/fhir/fr/medication/StructureDefinition/fr-inpatient-medicationrequest"/>
          <profile value="https://hl7.fr/fhir/fr/medication/StructureDefinition/fr-inpatient-medicationrequest-exclusion"/>
        </meta>
        <text>
          <status value="generated"/><div xmlns="http://www.w3.org/1999/xhtml"><a name="MedicationRequest_medicationrequest-HAS-4-Presc-DAFALGANCODEINE"> </a><p class="res-header-id"><b>Generated Narrative: MedicationRequest medicationrequest-HAS-4-Presc-DAFALGANCODEINE</b></p><a name="medicationrequest-HAS-4-Presc-DAFALGANCODEINE"> </a><a name="hcmedicationrequest-HAS-4-Presc-DAFALGANCODEINE"> </a><div style="display: inline-block; background-color: #d9e0e7; padding: 6px; margin: 4px; border: 1px solid #8da1b4; border-radius: 5px; line-height: 60%"><p style="margin-bottom: 0px"/><p style="margin-bottom: 0px">Profiles: <a href="StructureDefinition-fr-inpatient-medicationrequest.html">FrInpatientMedicationRequest</a>, <a href="StructureDefinition-fr-inpatient-medicationrequest-exclusion.html">FrInpatientMedicationRequestExclusion</a></p></div><p><b>identifier</b>: https://somehospital.fr/Medication-ID</p><p><b>status</b>: Active</p><p><b>intent</b>: Option</p><p><b>priority</b>: Routine</p><p><b>medication</b>: <span title="Codes:{http://data.esante.gouv.fr/ansm/medicament/UCD 3400891479287}">DAFALGAN CODEINE CPR</span></p><p><b>subject</b>: <code>#patient-HAS-4-Presc-Paracetamol-DAFALGANCODEINE</code></p><p><b>encounter</b>: Identifier: <code>https://somehospital.fr/Sejour</code>/S2025060612345</p><p><b>supportingInformation</b>: </p><ul><li>Identifier: <code>https://somehospital.fr/UF</code>/603</li><li>Identifier: <code>https://somehospital.fr/UF</code>/506</li></ul><p><b>authoredOn</b>: 2025-06-06 14:48:44+0200</p><p><b>requester</b>: Identifier: <code>urn:oid:1.2.250.1.71.4.2.1</code>/899999999999</p><p><b>groupIdentifier</b>: <code>https://somehospital.fr/Prescrption-ID</code>/Presc-HAS-4</p><p><b>note</b>: </p><blockquote><div><p>Prescription textuelle: DAFALGAN CODEINE®, comprimé : un à deux comprimés toutes les 12 h pendant 10 jours  si paracétamol  seul insuffisant, avec un maximum à 2 comprimés par prise et de 4 comprimés par jour . STOP SI NAUSEES.</p>
</div></blockquote><blockquote><p><b>dosageInstruction</b></p><p><b>timing</b>: Once per 12 hours</p><h3>DoseAndRates</h3><table class="grid"><tr><td style="display: none">-</td><td><b>Dose[x]</b></td></tr><tr><td style="display: none">*</td><td>1 Comprimé<span style="background: LightGoldenRodYellow"> (Details: standardterms.edqm.eu  code15054000 = 'Tablet')</span></td></tr></table><p><b>maxDosePerAdministration</b>: 2 Comprimé<span style="background: LightGoldenRodYellow"> (Details: standardterms.edqm.eu  code15054000 = 'Tablet')</span></p></blockquote></div>
        </text>
        <identifier>
          <value value="https://somehospital.fr/Medication-ID"/>
        </identifier>
        <status value="active"/>
        <intent value="option"/>
        <priority value="routine"/>
        <medicationCodeableConcept>
          <coding>
            <system value="http://data.esante.gouv.fr/ansm/medicament/UCD"/>
            <code value="3400891479287"/>
            <display value="DAFALGAN CODEINE CPR"/>
          </coding>
        </medicationCodeableConcept>
        <subject>
          <reference value="#patient-HAS-4-Presc-Paracetamol-DAFALGANCODEINE"/>
        </subject>
        <encounter>
          <identifier>
            <system value="https://somehospital.fr/Sejour"/>
            <value value="S2025060612345"/>
          </identifier>
        </encounter>
        <supportingInformation>
          <extension url="https://hl7.fr/fhir/fr/medication/StructureDefinition/fr-uf-role">
            <valueCode value="UFHEB"/>
          </extension>
          <type value="Organization"/>
          <identifier>
            <system value="https://somehospital.fr/UF"/>
            <value value="603"/>
          </identifier>
        </supportingInformation>
        <supportingInformation>
          <extension url="https://hl7.fr/fhir/fr/medication/StructureDefinition/fr-uf-role">
            <valueCode value="UFMED"/>
          </extension>
          <type value="Organization"/>
          <identifier>
            <system value="https://somehospital.fr/UF"/>
            <value value="506"/>
          </identifier>
        </supportingInformation>
        <authoredOn value="2025-06-06T14:48:44+02:00"/>
        <requester>
          <identifier>
            <system value="urn:oid:1.2.250.1.71.4.2.1"/>
            <value value="899999999999"/>
          </identifier>
        </requester>
        <groupIdentifier>
          <system value="https://somehospital.fr/Prescrption-ID"/>
          <value value="Presc-HAS-4"/>
        </groupIdentifier>
        <note>
          <extension url="https://hl7.fr/fhir/fr/medication/StructureDefinition/fr-medicationrequest-note-scope">
            <valueCode value="LIPRESCTXT"/>
          </extension>
          <text value="Prescription textuelle: DAFALGAN CODEINE®, comprimé : un à deux comprimés toutes les 12 h pendant 10 jours  si paracétamol  seul insuffisant, avec un maximum à 2 comprimés par prise et de 4 comprimés par jour . STOP SI NAUSEES."/>
        </note>
        <dosageInstruction>
          <timing>
            <repeat>
              <boundsDuration>
                <value value="10"/>
                <unit value="jour"/>
                <system value="http://unitsofmeasure.org"/>
                <code value="d"/>
              </boundsDuration>
              <frequency value="1"/>
              <period value="12"/>
              <periodUnit value="h"/>
            </repeat>
          </timing>
          <doseAndRate>
            <doseQuantity>
              <value value="1"/>
              <unit value="Comprimé"/>
              <system value="http://standardterms.edqm.eu"/>
              <code value="15054000"/>
            </doseQuantity>
          </doseAndRate>
          <maxDosePerAdministration>
            <value value="2"/>
            <unit value="Comprimé"/>
            <system value="http://standardterms.edqm.eu"/>
            <code value="15054000"/>
          </maxDosePerAdministration>
        </dosageInstruction>
      </MedicationRequest>
    </resource>
  </entry>
  <entry>
    <resource>
      <RequestGroup>
        <id value="requestgroup-HAS-4-Presc-Paracetamol-DAFALGANCODEINE"/>
        <meta>
          <profile value="https://hl7.fr/fhir/fr/medication/StructureDefinition/fr-requestgroup-for-prescription"/>
        </meta>
        <text>
          <status value="generated"/><div xmlns="http://www.w3.org/1999/xhtml"><a name="RequestGroup_requestgroup-HAS-4-Presc-Paracetamol-DAFALGANCODEINE"> </a><p class="res-header-id"><b>Generated Narrative: RequestGroup requestgroup-HAS-4-Presc-Paracetamol-DAFALGANCODEINE</b></p><a name="requestgroup-HAS-4-Presc-Paracetamol-DAFALGANCODEINE"> </a><a name="hcrequestgroup-HAS-4-Presc-Paracetamol-DAFALGANCODEINE"> </a><div style="display: inline-block; background-color: #d9e0e7; padding: 6px; margin: 4px; border: 1px solid #8da1b4; border-radius: 5px; line-height: 60%"><p style="margin-bottom: 0px"/><p style="margin-bottom: 0px">Profile: <a href="StructureDefinition-fr-requestgroup-for-prescription.html">FrRequestGroupForPrescrption</a></p></div><p><b>groupIdentifier</b>: <code>https://somehospital.fr/Prescrption-ID</code>/Presc-HAS-4</p><p><b>status</b>: Active</p><p><b>intent</b>: Order</p><p><b>priority</b>: Routine</p><p><b>subject</b>: <code>#patient-HAS-4-Presc-Paracetamol-DAFALGANCODEINE</code></p><blockquote><p><b>action</b></p><blockquote><p><b>id</b></p>A202506061</blockquote><p><b>selectionBehavior</b>: Exactly One</p><blockquote><p><b>action</b></p><blockquote><p><b>id</b></p>20250606144844570</blockquote><p><b>description</b>: si paracétamol insuffisant</p><p><b>resource</b>: <code>#medicationrequest-HAS-4-Presc-DAFALGANCODEINE</code></p></blockquote><blockquote><p><b>action</b></p><blockquote><p><b>id</b></p>20250606144844569</blockquote><p><b>resource</b>: <code>#medicationrequest-HAS-4-Presc-Paracetamol</code></p></blockquote></blockquote><blockquote><p><b>action</b></p><blockquote><p><b>id</b></p>A202506062</blockquote><p><b>description</b>: STOP SI NAUSEES</p><h3>Conditions</h3><table class="grid"><tr><td style="display: none">-</td><td><b>Kind</b></td></tr><tr><td style="display: none">*</td><td>Stop</td></tr></table><p><b>resource</b>: <code>#medicationrequest-HAS-4-Presc-DAFALGANCODEINE</code></p></blockquote></div>
        </text>
        <groupIdentifier>
          <system value="https://somehospital.fr/Prescrption-ID"/>
          <value value="Presc-HAS-4"/>
        </groupIdentifier>
        <status value="active"/>
        <intent value="order"/>
        <priority value="routine"/>
        <subject>
          <reference value="#patient-HAS-4-Presc-Paracetamol-DAFALGANCODEINE"/>
        </subject>
        <action id="A202506061">
          <selectionBehavior value="exactly-one"/>
          <action id="20250606144844570">
            <description value="si paracétamol insuffisant"/>
            <resource>
              <reference value="#medicationrequest-HAS-4-Presc-DAFALGANCODEINE"/>
            </resource>
          </action>
          <action id="20250606144844569">
            <resource>
              <reference value="#medicationrequest-HAS-4-Presc-Paracetamol"/>
            </resource>
          </action>
        </action>
        <action id="A202506062">
          <description value="STOP SI NAUSEES"/>
          <condition>
            <kind value="stop"/>
          </condition>
          <resource>
            <reference value="#medicationrequest-HAS-4-Presc-DAFALGANCODEINE"/>
          </resource>
        </action>
      </RequestGroup>
    </resource>
  </entry>
</Bundle>