{
  "resourceType" : "Bundle",
  "id" : "bundle-Compound-6166",
  "meta" : {
    "profile" : ["https://hl7.fr/fhir/fr/medication/StructureDefinition/fr-prescription-bundle-for-example"]
  },
  "type" : "searchset",
  "entry" : [{
    "resource" : {
      "resourceType" : "Patient",
      "id" : "Patient-Compound-6166",
      "meta" : {
        "profile" : ["https://hl7.fr/ig/fhir/core/StructureDefinition/fr-core-patient"]
      },
      "text" : {
        "status" : "generated",
        "div" : "<div xmlns=\"http://www.w3.org/1999/xhtml\"><a name=\"Patient_Patient-Compound-6166\"> </a><p class=\"res-header-id\"><b>Generated Narrative: Patient Patient-Compound-6166</b></p><a name=\"Patient-Compound-6166\"> </a><a name=\"hcPatient-Compound-6166\"> </a><a name=\"Patient-Compound-6166-en-US\"> </a><p style=\"border: 1px #661aff solid; background-color: #e6e6ff; padding: 10px;\">HENRY  Male, DoB: 2000-01-01 ( Patient internal identifier: 1234567891235000001820\u00a0(use:\u00a0usual,\u00a0))</p><hr/><table class=\"grid\"><tr><td style=\"background-color: #f3f5da\" title=\"Alternate names (see the one above)\">Alt. Name:</td><td colspan=\"3\">Jean (Official)</td></tr></table></div>"
      },
      "identifier" : [{
        "use" : "usual",
        "type" : {
          "coding" : [{
            "system" : "http://terminology.hl7.org/CodeSystem/v2-0203",
            "code" : "PI",
            "display" : "Patient internal identifier"
          }]
        },
        "system" : "https://somehospital.fr/IPP",
        "value" : "1234567891235000001820"
      }],
      "name" : [{
        "use" : "usual",
        "family" : "HENRY"
      },
      {
        "use" : "official",
        "given" : ["Jean"]
      }],
      "gender" : "male",
      "birthDate" : "2000-01-01"
    }
  },
  {
    "resource" : {
      "resourceType" : "Practitioner",
      "id" : "Practitioner-Compound-6166",
      "meta" : {
        "profile" : ["https://hl7.fr/ig/fhir/core/StructureDefinition/fr-core-practitioner"]
      },
      "text" : {
        "status" : "generated",
        "div" : "<div xmlns=\"http://www.w3.org/1999/xhtml\"><a name=\"Practitioner_Practitioner-Compound-6166\"> </a><p class=\"res-header-id\"><b>Generated Narrative: Practitioner Practitioner-Compound-6166</b></p><a name=\"Practitioner-Compound-6166\"> </a><a name=\"hcPractitioner-Compound-6166\"> </a><a name=\"Practitioner-Compound-6166-en-US\"> </a><p><b>identifier</b>: Employee number/12345678910</p><p><b>name</b>: Charles DUPONT , Charles (Official)</p></div>"
      },
      "identifier" : [{
        "type" : {
          "coding" : [{
            "system" : "http://terminology.hl7.org/CodeSystem/v2-0203",
            "code" : "EI"
          }]
        },
        "system" : "https://somehospital.fr/EI",
        "value" : "12345678910"
      }],
      "name" : [{
        "use" : "usual",
        "family" : "DUPONT",
        "given" : ["Charles"]
      },
      {
        "use" : "official",
        "given" : ["Charles"]
      }]
    }
  },
  {
    "resource" : {
      "resourceType" : "Medication",
      "text" : {
        "status" : "generated",
        "div" : "<div xmlns=\"http://www.w3.org/1999/xhtml\"><a name=\"Medication_null\"> </a><p class=\"res-header-id\"><b>Generated Narrative: Medication </b></p></div>"
      }
    }
  },
  {
    "resource" : {
      "resourceType" : "Medication",
      "id" : "med-Compound-6166-1",
      "meta" : {
        "profile" : ["https://hl7.fr/fhir/fr/medication/StructureDefinition/fr-medication-noncompound"]
      },
      "text" : {
        "status" : "generated",
        "div" : "<div xmlns=\"http://www.w3.org/1999/xhtml\"><a name=\"Medication_med-Compound-6166-1\"> </a><p class=\"res-header-id\"><b>Generated Narrative: Medication med-Compound-6166-1</b></p><a name=\"med-Compound-6166-1\"> </a><a name=\"hcmed-Compound-6166-1\"> </a><a name=\"med-Compound-6166-1-en-US\"> </a><p><b>code</b>: <span title=\"Codes:{http://data.esante.gouv.fr/ansm/medicament/UCD 3400894061175}\">NUTRYELT, sol à diluer pr perf, amp 10 mL</span></p><p><b>amount</b>: 10(unit 15002000 from http://standardterms.edqm.eu)<span style=\"background: LightGoldenRodYellow\"> (Details: standardterms.edqm.eu  code15002000 = 'Ampoule')</span>/</p><p><b style=\"color: maroon\">Exception Generating Narrative: Cannot invoke &quot;org.hl7.fhir.r5.renderers.utils.ResourceWrapper.has(String)&quot; because &quot;q&quot; is null </b></p></div>"
      },
      "code" : {
        "coding" : [{
          "system" : "http://data.esante.gouv.fr/ansm/medicament/UCD",
          "code" : "3400894061175",
          "display" : "NUTRYELT PERF AMP10ML"
        }],
        "text" : "NUTRYELT, sol à diluer pr perf, amp 10 mL"
      },
      "amount" : {
        "numerator" : {
          "value" : 10,
          "system" : "http://standardterms.edqm.eu",
          "code" : "15002000"
        }
      }
    }
  },
  {
    "resource" : {
      "resourceType" : "Medication",
      "id" : "med-Compound-6166-2",
      "meta" : {
        "profile" : ["https://hl7.fr/fhir/fr/medication/StructureDefinition/fr-medication-noncompound"]
      },
      "text" : {
        "status" : "generated",
        "div" : "<div xmlns=\"http://www.w3.org/1999/xhtml\"><a name=\"Medication_med-Compound-6166-2\"> </a><p class=\"res-header-id\"><b>Generated Narrative: Medication med-Compound-6166-2</b></p><a name=\"med-Compound-6166-2\"> </a><a name=\"hcmed-Compound-6166-2\"> </a><a name=\"med-Compound-6166-2-en-US\"> </a><p><b>code</b>: <span title=\"Codes:{http://data.esante.gouv.fr/ansm/medicament/UCD 3400892834719}\">POTASSIUM CHLORURE 1 g (10% Labo COOPER), sol à diluer pr perf, amp 10 mL</span></p><p><b>amount</b>: 2(unit 15002000 from http://standardterms.edqm.eu)<span style=\"background: LightGoldenRodYellow\"> (Details: standardterms.edqm.eu  code15002000 = 'Ampoule')</span>/</p><p><b style=\"color: maroon\">Exception Generating Narrative: Cannot invoke &quot;org.hl7.fhir.r5.renderers.utils.ResourceWrapper.has(String)&quot; because &quot;q&quot; is null </b></p></div>"
      },
      "code" : {
        "coding" : [{
          "system" : "http://data.esante.gouv.fr/ansm/medicament/UCD",
          "code" : "3400892834719",
          "display" : "POTASSIUM 10% CPF AB10ML"
        }],
        "text" : "POTASSIUM CHLORURE 1 g (10% Labo COOPER), sol à diluer pr perf, amp 10 mL"
      },
      "amount" : {
        "numerator" : {
          "value" : 2,
          "system" : "http://standardterms.edqm.eu",
          "code" : "15002000"
        }
      }
    }
  },
  {
    "resource" : {
      "resourceType" : "Medication",
      "id" : "med-Compound-6166-3",
      "meta" : {
        "profile" : ["https://hl7.fr/fhir/fr/medication/StructureDefinition/fr-medication-noncompound"]
      },
      "text" : {
        "status" : "generated",
        "div" : "<div xmlns=\"http://www.w3.org/1999/xhtml\"><a name=\"Medication_med-Compound-6166-3\"> </a><p class=\"res-header-id\"><b>Generated Narrative: Medication med-Compound-6166-3</b></p><a name=\"med-Compound-6166-3\"> </a><a name=\"hcmed-Compound-6166-3\"> </a><a name=\"med-Compound-6166-3-en-US\"> </a><p><b>code</b>: <span title=\"Codes:{http://data.esante.gouv.fr/ansm/medicament/UCD 3400892614236}\">MAGNESIUM CHLORURE 1 g (Labo LAVOISIER), sol inj, IV, amp 10 mL</span></p><p><b>amount</b>: 1(unit 15002000 from http://standardterms.edqm.eu)<span style=\"background: LightGoldenRodYellow\"> (Details: standardterms.edqm.eu  code15002000 = 'Ampoule')</span>/</p><p><b style=\"color: maroon\">Exception Generating Narrative: Cannot invoke &quot;org.hl7.fhir.r5.renderers.utils.ResourceWrapper.has(String)&quot; because &quot;q&quot; is null </b></p></div>"
      },
      "code" : {
        "coding" : [{
          "system" : "http://data.esante.gouv.fr/ansm/medicament/UCD",
          "code" : "3400892614236",
          "display" : "MAGNESIUM C.10% LAV AB10ML"
        }],
        "text" : "MAGNESIUM CHLORURE 1 g (Labo LAVOISIER), sol inj, IV, amp 10 mL"
      },
      "amount" : {
        "numerator" : {
          "value" : 1,
          "system" : "http://standardterms.edqm.eu",
          "code" : "15002000"
        }
      }
    }
  },
  {
    "resource" : {
      "resourceType" : "Medication",
      "id" : "med-Compound-6166-4",
      "meta" : {
        "profile" : ["https://hl7.fr/fhir/fr/medication/StructureDefinition/fr-medication-noncompound"]
      },
      "text" : {
        "status" : "generated",
        "div" : "<div xmlns=\"http://www.w3.org/1999/xhtml\"><a name=\"Medication_med-Compound-6166-4\"> </a><p class=\"res-header-id\"><b>Generated Narrative: Medication med-Compound-6166-4</b></p><a name=\"med-Compound-6166-4\"> </a><a name=\"hcmed-Compound-6166-4\"> </a><a name=\"med-Compound-6166-4-en-US\"> </a><p><b>code</b>: <span title=\"Codes:{http://data.esante.gouv.fr/ansm/medicament/UCD 3400893149416}\">LEVOFOLINATE DE CALCIUM 25 mg (Labo ZENTIVA), sol inj, IM IV, flac 2.5 mL</span></p><p><b>amount</b>: 25(unit 15060000 from http://standardterms.edqm.eu)<span style=\"background: LightGoldenRodYellow\"> (Details: standardterms.edqm.eu  code15060000 = 'Vial')</span>/</p><p><b style=\"color: maroon\">Exception Generating Narrative: Cannot invoke &quot;org.hl7.fhir.r5.renderers.utils.ResourceWrapper.has(String)&quot; because &quot;q&quot; is null </b></p></div>"
      },
      "code" : {
        "coding" : [{
          "system" : "http://data.esante.gouv.fr/ansm/medicament/UCD",
          "code" : "3400893149416",
          "display" : "CALCIUM LEV.ZEN 25MG/2,5ML FL"
        }],
        "text" : "LEVOFOLINATE DE CALCIUM 25 mg (Labo ZENTIVA), sol inj, IM IV, flac 2.5 mL"
      },
      "amount" : {
        "numerator" : {
          "value" : 25,
          "system" : "http://standardterms.edqm.eu",
          "code" : "15060000"
        }
      }
    }
  },
  {
    "resource" : {
      "resourceType" : "Medication",
      "id" : "med-Compound-6166-5",
      "meta" : {
        "profile" : ["https://hl7.fr/fhir/fr/medication/StructureDefinition/fr-medication-noncompound"]
      },
      "text" : {
        "status" : "generated",
        "div" : "<div xmlns=\"http://www.w3.org/1999/xhtml\"><a name=\"Medication_med-Compound-6166-5\"> </a><p class=\"res-header-id\"><b>Generated Narrative: Medication med-Compound-6166-5</b></p><a name=\"med-Compound-6166-5\"> </a><a name=\"hcmed-Compound-6166-5\"> </a><a name=\"med-Compound-6166-5-en-US\"> </a><p><b>code</b>: <span title=\"Codes:{http://data.esante.gouv.fr/ansm/medicament/UCD 3400891343281}\">CERNEVIT, pdr pr sol inj ou pr perf</span></p><p><b>amount</b>: 1(unit 15060000 from http://standardterms.edqm.eu)<span style=\"background: LightGoldenRodYellow\"> (Details: standardterms.edqm.eu  code15060000 = 'Vial')</span>/</p><p><b style=\"color: maroon\">Exception Generating Narrative: Cannot invoke &quot;org.hl7.fhir.r5.renderers.utils.ResourceWrapper.has(String)&quot; because &quot;q&quot; is null </b></p></div>"
      },
      "code" : {
        "coding" : [{
          "system" : "http://data.esante.gouv.fr/ansm/medicament/UCD",
          "code" : "3400891343281",
          "display" : "CERNEVIT INJ FL"
        }],
        "text" : "CERNEVIT, pdr pr sol inj ou pr perf"
      },
      "amount" : {
        "numerator" : {
          "value" : 1,
          "system" : "http://standardterms.edqm.eu",
          "code" : "15060000"
        }
      }
    }
  },
  {
    "resource" : {
      "resourceType" : "Medication",
      "id" : "med-Compound-6166-C",
      "meta" : {
        "profile" : ["https://hl7.fr/fhir/fr/medication/StructureDefinition/fr-medication-compound2"]
      },
      "text" : {
        "status" : "generated",
        "div" : "<div xmlns=\"http://www.w3.org/1999/xhtml\"><a name=\"Medication_med-Compound-6166-C\"> </a><p class=\"res-header-id\"><b>Generated Narrative: Medication med-Compound-6166-C</b></p><a name=\"med-Compound-6166-C\"> </a><a name=\"hcmed-Compound-6166-C\"> </a><a name=\"med-Compound-6166-C-en-US\"> </a><p><b>code</b>: <span title=\"Codes:{http://data.esante.gouv.fr/ansm/medicament/UCD 3400891780475}\">NUTRYELT, sol à diluer pr perf, amp 10 mL + POTASSIUM CHLORURE 1 g (10% Labo COOPER), sol à diluer pr perf, amp 10 mL + MAGNESIUM CHLORURE 1 g (Labo LAVOISIER), sol inj, IV, amp 10 mL + LEVOFOLINATE DE CALCIUM 25 mg (Labo ZENTIVA), sol inj, IM IV, flac 2.5 mL + CERNEVIT, pdr pr sol inj ou pr perf + SODIUM CHLORURE 0.9% (Labo B BRAUN), sol pr perf, poche 500 mL (ECOFLAC)</span></p><p><b>amount</b>: 1(unit 15005000 from http://standardterms.edqm.eu)<span style=\"background: LightGoldenRodYellow\"> (Details: standardterms.edqm.eu  code15005000 = 'Bag')</span>/</p><p><b style=\"color: maroon\">Exception Generating Narrative: Cannot invoke &quot;org.hl7.fhir.r5.renderers.utils.ResourceWrapper.has(String)&quot; because &quot;q&quot; is null </b></p></div>"
      },
      "code" : {
        "coding" : [{
          "system" : "http://data.esante.gouv.fr/ansm/medicament/UCD",
          "code" : "3400891780475",
          "display" : "SODIUM 0,9% BBM INJ P.E500ML"
        }],
        "text" : "NUTRYELT, sol à diluer pr perf, amp 10 mL + POTASSIUM CHLORURE 1 g (10% Labo COOPER), sol à diluer pr perf, amp 10 mL + MAGNESIUM CHLORURE 1 g (Labo LAVOISIER), sol inj, IV, amp 10 mL + LEVOFOLINATE DE CALCIUM 25 mg (Labo ZENTIVA), sol inj, IM IV, flac 2.5 mL + CERNEVIT, pdr pr sol inj ou pr perf + SODIUM CHLORURE 0.9% (Labo B BRAUN), sol pr perf, poche 500 mL (ECOFLAC)"
      },
      "amount" : {
        "numerator" : {
          "value" : 1,
          "system" : "http://standardterms.edqm.eu",
          "code" : "15005000"
        }
      },
      "ingredient" : [{
        "itemReference" : {
          "reference" : "#med-Compound-6166-1"
        }
      },
      {
        "itemReference" : {
          "reference" : "#med-Compound-6166-2"
        }
      },
      {
        "itemReference" : {
          "reference" : "#med-Compound-6166-3"
        }
      },
      {
        "itemReference" : {
          "reference" : "#med-Compound-6166-4"
        }
      },
      {
        "itemReference" : {
          "reference" : "#med-Compound-6166-5"
        }
      },
      {
        "itemReference" : {
          "reference" : "#med-Compound-6166-6"
        }
      }]
    }
  },
  {
    "resource" : {
      "resourceType" : "Observation",
      "id" : "Obs-Compound-6166-1",
      "meta" : {
        "profile" : ["https://hl7.fr/ig/fhir/core/StructureDefinition/fr-core-observation-body-height"]
      },
      "text" : {
        "status" : "generated",
        "div" : "<div xmlns=\"http://www.w3.org/1999/xhtml\"><a name=\"Observation_Obs-Compound-6166-1\"> </a><p class=\"res-header-id\"><b>Generated Narrative: Observation Obs-Compound-6166-1</b></p><a name=\"Obs-Compound-6166-1\"> </a><a name=\"hcObs-Compound-6166-1\"> </a><a name=\"Obs-Compound-6166-1-en-US\"> </a><p><b>status</b>: Final</p><p><b>category</b>: <span title=\"Codes:{http://terminology.hl7.org/CodeSystem/observation-category vital-signs}\">Vital Signs</span></p><p><b>code</b>: <span title=\"Codes:{http://loinc.org 8302-2}\">Body height</span></p><p><b>subject</b>: <code>#Patient-Compound-6166</code></p><p><b>effective</b>: 2023-05-03 11:30:00+0200</p><p><b>value</b>: 181 cm<span style=\"background: LightGoldenRodYellow\"> (Details: UCUM  codecm = 'cm')</span></p></div>"
      },
      "status" : "final",
      "category" : [{
        "coding" : [{
          "system" : "http://terminology.hl7.org/CodeSystem/observation-category",
          "code" : "vital-signs"
        }]
      }],
      "code" : {
        "coding" : [{
          "system" : "http://loinc.org",
          "code" : "8302-2"
        }]
      },
      "subject" : {
        "reference" : "#Patient-Compound-6166"
      },
      "effectiveDateTime" : "2023-05-03T11:30:00+02:00",
      "valueQuantity" : {
        "value" : 181,
        "unit" : "cm",
        "system" : "http://unitsofmeasure.org",
        "code" : "cm"
      }
    }
  },
  {
    "resource" : {
      "resourceType" : "Observation",
      "id" : "Obs-Compound-6166-2",
      "meta" : {
        "profile" : ["https://hl7.fr/ig/fhir/core/StructureDefinition/fr-core-observation-body-weight"]
      },
      "text" : {
        "status" : "generated",
        "div" : "<div xmlns=\"http://www.w3.org/1999/xhtml\"><a name=\"Observation_Obs-Compound-6166-2\"> </a><p class=\"res-header-id\"><b>Generated Narrative: Observation Obs-Compound-6166-2</b></p><a name=\"Obs-Compound-6166-2\"> </a><a name=\"hcObs-Compound-6166-2\"> </a><a name=\"Obs-Compound-6166-2-en-US\"> </a><p><b>status</b>: Final</p><p><b>category</b>: <span title=\"Codes:{http://terminology.hl7.org/CodeSystem/observation-category vital-signs}\">Vital Signs</span></p><p><b>code</b>: <span title=\"Codes:{http://loinc.org 29463-7}\">Body weight</span></p><p><b>subject</b>: <code>#Patient-Compound-6166</code></p><p><b>effective</b>: 2023-05-03 11:30:00+0200</p><p><b>value</b>: 79 kg<span style=\"background: LightGoldenRodYellow\"> (Details: UCUM  codekg = 'kg')</span></p></div>"
      },
      "status" : "final",
      "category" : [{
        "coding" : [{
          "system" : "http://terminology.hl7.org/CodeSystem/observation-category",
          "code" : "vital-signs"
        }]
      }],
      "code" : {
        "coding" : [{
          "system" : "http://loinc.org",
          "code" : "29463-7"
        }]
      },
      "subject" : {
        "reference" : "#Patient-Compound-6166"
      },
      "effectiveDateTime" : "2023-05-03T11:30:00+02:00",
      "valueQuantity" : {
        "value" : 79,
        "unit" : "kg",
        "system" : "http://unitsofmeasure.org",
        "code" : "kg"
      }
    }
  },
  {
    "resource" : {
      "resourceType" : "Observation",
      "id" : "Obs-Compound-6166-3",
      "text" : {
        "status" : "generated",
        "div" : "<div xmlns=\"http://www.w3.org/1999/xhtml\"><a name=\"Observation_Obs-Compound-6166-3\"> </a><p class=\"res-header-id\"><b>Generated Narrative: Observation Obs-Compound-6166-3</b></p><a name=\"Obs-Compound-6166-3\"> </a><a name=\"hcObs-Compound-6166-3\"> </a><a name=\"Obs-Compound-6166-3-en-US\"> </a><p><b>status</b>: Final</p><p><b>category</b>: <span title=\"Codes:{http://terminology.hl7.org/CodeSystem/observation-category vital-signs}\">Vital Signs</span></p><p><b>code</b>: <span title=\"Codes:{http://loinc.org 33558-8}\">Creatinine renal clearance in Urine and Serum or Plasma collected for unspecified duration</span></p><p><b>subject</b>: <code>#Patient-Compound-6166</code></p><p><b>effective</b>: 2023-05-03 11:30:00+0200</p><p><b>value</b>: 0 µmol/l<span style=\"background: LightGoldenRodYellow\"> (Details: UCUM  codeumol/L = 'umol/L')</span></p></div>"
      },
      "status" : "final",
      "category" : [{
        "coding" : [{
          "system" : "http://terminology.hl7.org/CodeSystem/observation-category",
          "code" : "vital-signs"
        }]
      }],
      "code" : {
        "coding" : [{
          "system" : "http://loinc.org",
          "code" : "33558-8"
        }]
      },
      "subject" : {
        "reference" : "#Patient-Compound-6166"
      },
      "effectiveDateTime" : "2023-05-03T11:30:00+02:00",
      "valueQuantity" : {
        "value" : 0,
        "unit" : "µmol/l",
        "system" : "http://unitsofmeasure.org",
        "code" : "umol/L"
      }
    }
  },
  {
    "resource" : {
      "resourceType" : "MedicationRequest",
      "meta" : {
        "profile" : ["https://hl7.fr/fhir/fr/medication/StructureDefinition/fr-inpatient-medicationrequest3"]
      },
      "text" : {
        "status" : "generated",
        "div" : "<div xmlns=\"http://www.w3.org/1999/xhtml\"><a name=\"MedicationRequest_null\"> </a><p class=\"res-header-id\"><b>Generated Narrative: MedicationRequest </b></p><p><b>identifier</b>: <code>https://somehospital.fr/PrescrptionLine-ID</code>/6166</p><p><b>status</b>: Active</p><p><b>intent</b>: Order</p><p><b>priority</b>: Routine</p><p><b>medication</b>: <code>#med-med-Compound-6166-C</code></p><p><b>subject</b>: <code>#Patient-Compound-6166</code></p><p><b>encounter</b>: Identifier: <code>https://somehospital.fr/Sejour</code>/3</p><p><b>supportingInformation</b>: </p><ul><li><code>#Obs-Compound-6166-1</code></li><li><code>#Obs-Compound-6166-2</code></li><li><code>#Obs-Compound-6166-3</code></li></ul><p><b>authoredOn</b>: 2023-05-03 11:30:00+0200</p><p><b>requester</b>: <code>#Practitioner-Compound-6166</code></p><p><b>groupIdentifier</b>: <code>https://somehospital.fr/Prescrption-ID</code>/IdentifiantAttribuéPourLaTraductionEnFHIR</p><blockquote><p><b>dosageInstruction</b></p><p><b>timing</b>: Duration 720hours , Once per 12 hours</p><p><b>route</b>: <span title=\"Codes:{http://standardterms.edqm.eu 20045000}\">Voie intraveineuse</span></p><h3>DoseAndRates</h3><table class=\"grid\"><tr><td style=\"display: none\">-</td><td><b>Dose[x]</b></td></tr><tr><td style=\"display: none\">*</td><td>1 dose</td></tr></table></blockquote></div>"
      },
      "identifier" : [{
        "system" : "https://somehospital.fr/PrescrptionLine-ID",
        "value" : "6166"
      }],
      "status" : "active",
      "intent" : "order",
      "priority" : "routine",
      "medicationReference" : {
        "reference" : "#med-med-Compound-6166-C"
      },
      "subject" : {
        "reference" : "#Patient-Compound-6166"
      },
      "encounter" : {
        "identifier" : {
          "system" : "https://somehospital.fr/Sejour",
          "value" : "3"
        }
      },
      "supportingInformation" : [{
        "reference" : "#Obs-Compound-6166-1"
      },
      {
        "reference" : "#Obs-Compound-6166-2"
      },
      {
        "reference" : "#Obs-Compound-6166-3"
      }],
      "authoredOn" : "2023-05-03T11:30:00+02:00",
      "requester" : {
        "reference" : "#Practitioner-Compound-6166"
      },
      "groupIdentifier" : {
        "system" : "https://somehospital.fr/Prescrption-ID",
        "value" : "IdentifiantAttribuéPourLaTraductionEnFHIR"
      },
      "dosageInstruction" : [{
        "timing" : {
          "repeat" : {
            "boundsPeriod" : {
              "start" : "2023-05-03T10:00:00+02:00"
            },
            "duration" : 720,
            "durationUnit" : "min",
            "frequency" : 1,
            "period" : 12,
            "periodUnit" : "h",
            "timeOfDay" : ["10:00:00"]
          }
        },
        "route" : {
          "coding" : [{
            "system" : "http://standardterms.edqm.eu",
            "code" : "20045000",
            "display" : "Voie intraveineuse"
          }]
        },
        "doseAndRate" : [{
          "doseQuantity" : {
            "value" : 1,
            "unit" : "dose"
          }
        }]
      }]
    }
  }]
}