<?xml version="1.0" encoding="UTF-8"?>

<Bundle xmlns="http://hl7.org/fhir">
  <id value="bundle-Compound-6166"/>
  <meta>
    <profile value="https://hl7.fr/fhir/fr/medication/StructureDefinition/fr-prescription-bundle-for-example"/>
  </meta>
  <type value="searchset"/>
  <entry>
    <resource>
      <Patient>
        <id value="Patient-Compound-6166"/>
        <meta>
          <profile value="https://hl7.fr/ig/fhir/core/StructureDefinition/fr-core-patient"/>
        </meta>
        <text>
          <status value="generated"/><div xmlns="http://www.w3.org/1999/xhtml"><a name="Patient_Patient-Compound-6166"> </a><p class="res-header-id"><b>Generated Narrative: Patient Patient-Compound-6166</b></p><a name="Patient-Compound-6166"> </a><a name="hcPatient-Compound-6166"> </a><a name="Patient-Compound-6166-en-US"> </a><p style="border: 1px #661aff solid; background-color: #e6e6ff; padding: 10px;">HENRY  Male, DoB: 2000-01-01 ( Patient internal identifier: 1234567891235000001820 (use: usual, ))</p><hr/><table class="grid"><tr><td style="background-color: #f3f5da" title="Alternate names (see the one above)">Alt. Name:</td><td colspan="3">Jean (Official)</td></tr></table></div>
        </text>
        <identifier>
          <use value="usual"/>
          <type>
            <coding>
              <system value="http://terminology.hl7.org/CodeSystem/v2-0203"/>
              <code value="PI"/>
              <display value="Patient internal identifier"/>
            </coding>
          </type>
          <system value="https://somehospital.fr/IPP"/>
          <value value="1234567891235000001820"/>
        </identifier>
        <name>
          <use value="usual"/>
          <family value="HENRY"/>
        </name>
        <name>
          <use value="official"/>
          <given value="Jean"/>
        </name>
        <gender value="male"/>
        <birthDate value="2000-01-01"/>
      </Patient>
    </resource>
  </entry>
  <entry>
    <resource>
      <Practitioner>
        <id value="Practitioner-Compound-6166"/>
        <meta>
          <profile value="https://hl7.fr/ig/fhir/core/StructureDefinition/fr-core-practitioner"/>
        </meta>
        <text>
          <status value="generated"/><div xmlns="http://www.w3.org/1999/xhtml"><a name="Practitioner_Practitioner-Compound-6166"> </a><p class="res-header-id"><b>Generated Narrative: Practitioner Practitioner-Compound-6166</b></p><a name="Practitioner-Compound-6166"> </a><a name="hcPractitioner-Compound-6166"> </a><a name="Practitioner-Compound-6166-en-US"> </a><p><b>identifier</b>: Employee number/12345678910</p><p><b>name</b>: Charles DUPONT , Charles (Official)</p></div>
        </text>
        <identifier>
          <type>
            <coding>
              <system value="http://terminology.hl7.org/CodeSystem/v2-0203"/>
              <code value="EI"/>
            </coding>
          </type>
          <system value="https://somehospital.fr/EI"/>
          <value value="12345678910"/>
        </identifier>
        <name>
          <use value="usual"/>
          <family value="DUPONT"/>
          <given value="Charles"/>
        </name>
        <name>
          <use value="official"/>
          <given value="Charles"/>
        </name>
      </Practitioner>
    </resource>
  </entry>
  <entry>
    <resource>
      <Medication>
        <id value="med-Compound-6166-1"/>
        <meta>
          <profile value="https://hl7.fr/fhir/fr/medication/StructureDefinition/fr-medication-noncompound"/>
        </meta>
        <text>
          <status value="generated"/><div xmlns="http://www.w3.org/1999/xhtml"><a name="Medication_med-Compound-6166-1"> </a><p class="res-header-id"><b>Generated Narrative: Medication med-Compound-6166-1</b></p><a name="med-Compound-6166-1"> </a><a name="hcmed-Compound-6166-1"> </a><a name="med-Compound-6166-1-en-US"> </a><p><b>code</b>: <span title="Codes:{http://data.esante.gouv.fr/ansm/medicament/UCD 3400894061175}">NUTRYELT, sol à diluer pr perf, amp 10 mL</span></p><p><b>amount</b>: 1(unit 15002000 from http://standardterms.edqm.eu)<span style="background: LightGoldenRodYellow"> (Details: standardterms.edqm.eu  code15002000 = 'Ampoule')</span>/</p><p><b style="color: maroon">Exception Generating Narrative: Cannot invoke &quot;org.hl7.fhir.r5.renderers.utils.ResourceWrapper.has(String)&quot; because &quot;q&quot; is null </b></p></div>
        </text>
        <code>
          <coding>
            <system value="http://data.esante.gouv.fr/ansm/medicament/UCD"/>
            <code value="3400894061175"/>
            <display value="NUTRYELT PERF AMP10ML"/>
          </coding>
          <text value="NUTRYELT, sol à diluer pr perf, amp 10 mL"/>
        </code>
        <amount>
          <numerator>
            <value value="1"/>
            <system value="http://standardterms.edqm.eu"/>
            <code value="15002000"/>
          </numerator>
        </amount>
      </Medication>
    </resource>
  </entry>
  <entry>
    <resource>
      <Medication>
        <id value="med-Compound-6166-2"/>
        <meta>
          <profile value="https://hl7.fr/fhir/fr/medication/StructureDefinition/fr-medication-noncompound"/>
        </meta>
        <text>
          <status value="generated"/><div xmlns="http://www.w3.org/1999/xhtml"><a name="Medication_med-Compound-6166-2"> </a><p class="res-header-id"><b>Generated Narrative: Medication med-Compound-6166-2</b></p><a name="med-Compound-6166-2"> </a><a name="hcmed-Compound-6166-2"> </a><a name="med-Compound-6166-2-en-US"> </a><p><b>code</b>: <span title="Codes:{http://data.esante.gouv.fr/ansm/medicament/UCD 3400892834719}">POTASSIUM CHLORURE 1 g (10% Labo COOPER), sol à diluer pr perf, amp 10 mL</span></p><p><b>amount</b>: 1(unit 15002000 from http://standardterms.edqm.eu)<span style="background: LightGoldenRodYellow"> (Details: standardterms.edqm.eu  code15002000 = 'Ampoule')</span>/</p><p><b style="color: maroon">Exception Generating Narrative: Cannot invoke &quot;org.hl7.fhir.r5.renderers.utils.ResourceWrapper.has(String)&quot; because &quot;q&quot; is null </b></p></div>
        </text>
        <code>
          <coding>
            <system value="http://data.esante.gouv.fr/ansm/medicament/UCD"/>
            <code value="3400892834719"/>
            <display value="POTASSIUM 10% CPF AB10ML"/>
          </coding>
          <text value="POTASSIUM CHLORURE 1 g (10% Labo COOPER), sol à diluer pr perf, amp 10 mL"/>
        </code>
        <amount>
          <numerator>
            <value value="1"/>
            <system value="http://standardterms.edqm.eu"/>
            <code value="15002000"/>
          </numerator>
        </amount>
      </Medication>
    </resource>
  </entry>
  <entry>
    <resource>
      <Medication>
        <id value="med-Compound-6166-3"/>
        <meta>
          <profile value="https://hl7.fr/fhir/fr/medication/StructureDefinition/fr-medication-noncompound"/>
        </meta>
        <text>
          <status value="generated"/><div xmlns="http://www.w3.org/1999/xhtml"><a name="Medication_med-Compound-6166-3"> </a><p class="res-header-id"><b>Generated Narrative: Medication med-Compound-6166-3</b></p><a name="med-Compound-6166-3"> </a><a name="hcmed-Compound-6166-3"> </a><a name="med-Compound-6166-3-en-US"> </a><p><b>code</b>: <span title="Codes:{http://data.esante.gouv.fr/ansm/medicament/UCD 3400892614236}">MAGNESIUM CHLORURE 1 g (Labo LAVOISIER), sol inj, IV, amp 10 mL</span></p><p><b>amount</b>: 1(unit 15002000 from http://standardterms.edqm.eu)<span style="background: LightGoldenRodYellow"> (Details: standardterms.edqm.eu  code15002000 = 'Ampoule')</span>/</p><p><b style="color: maroon">Exception Generating Narrative: Cannot invoke &quot;org.hl7.fhir.r5.renderers.utils.ResourceWrapper.has(String)&quot; because &quot;q&quot; is null </b></p></div>
        </text>
        <code>
          <coding>
            <system value="http://data.esante.gouv.fr/ansm/medicament/UCD"/>
            <code value="3400892614236"/>
            <display value="MAGNESIUM C.10% LAV AB10ML"/>
          </coding>
          <text value="MAGNESIUM CHLORURE 1 g (Labo LAVOISIER), sol inj, IV, amp 10 mL"/>
        </code>
        <amount>
          <numerator>
            <value value="1"/>
            <system value="http://standardterms.edqm.eu"/>
            <code value="15002000"/>
          </numerator>
        </amount>
      </Medication>
    </resource>
  </entry>
  <entry>
    <resource>
      <Medication>
        <id value="med-Compound-6166-4"/>
        <meta>
          <profile value="https://hl7.fr/fhir/fr/medication/StructureDefinition/fr-medication-noncompound"/>
        </meta>
        <text>
          <status value="generated"/><div xmlns="http://www.w3.org/1999/xhtml"><a name="Medication_med-Compound-6166-4"> </a><p class="res-header-id"><b>Generated Narrative: Medication med-Compound-6166-4</b></p><a name="med-Compound-6166-4"> </a><a name="hcmed-Compound-6166-4"> </a><a name="med-Compound-6166-4-en-US"> </a><p><b>code</b>: <span title="Codes:{http://data.esante.gouv.fr/ansm/medicament/UCD 3400893149416}">LEVOFOLINATE DE CALCIUM 25 mg (Labo ZENTIVA), sol inj, IM IV, flac 2.5 mL</span></p><p><b>amount</b>: 1(unit 15060000 from http://standardterms.edqm.eu)<span style="background: LightGoldenRodYellow"> (Details: standardterms.edqm.eu  code15060000 = 'Vial')</span>/</p><p><b style="color: maroon">Exception Generating Narrative: Cannot invoke &quot;org.hl7.fhir.r5.renderers.utils.ResourceWrapper.has(String)&quot; because &quot;q&quot; is null </b></p></div>
        </text>
        <code>
          <coding>
            <system value="http://data.esante.gouv.fr/ansm/medicament/UCD"/>
            <code value="3400893149416"/>
            <display value="CALCIUM LEV.ZEN 25MG/2,5ML FL"/>
          </coding>
          <text value="LEVOFOLINATE DE CALCIUM 25 mg (Labo ZENTIVA), sol inj, IM IV, flac 2.5 mL"/>
        </code>
        <amount>
          <numerator>
            <value value="1"/>
            <system value="http://standardterms.edqm.eu"/>
            <code value="15060000"/>
          </numerator>
        </amount>
      </Medication>
    </resource>
  </entry>
  <entry>
    <resource>
      <Medication>
        <id value="med-Compound-6166-5"/>
        <meta>
          <profile value="https://hl7.fr/fhir/fr/medication/StructureDefinition/fr-medication-noncompound"/>
        </meta>
        <text>
          <status value="generated"/><div xmlns="http://www.w3.org/1999/xhtml"><a name="Medication_med-Compound-6166-5"> </a><p class="res-header-id"><b>Generated Narrative: Medication med-Compound-6166-5</b></p><a name="med-Compound-6166-5"> </a><a name="hcmed-Compound-6166-5"> </a><a name="med-Compound-6166-5-en-US"> </a><p><b>code</b>: <span title="Codes:{http://data.esante.gouv.fr/ansm/medicament/UCD 3400891343281}">CERNEVIT, pdr pr sol inj ou pr perf</span></p><p><b>amount</b>: 1(unit 15060000 from http://standardterms.edqm.eu)<span style="background: LightGoldenRodYellow"> (Details: standardterms.edqm.eu  code15060000 = 'Vial')</span>/</p><p><b style="color: maroon">Exception Generating Narrative: Cannot invoke &quot;org.hl7.fhir.r5.renderers.utils.ResourceWrapper.has(String)&quot; because &quot;q&quot; is null </b></p></div>
        </text>
        <code>
          <coding>
            <system value="http://data.esante.gouv.fr/ansm/medicament/UCD"/>
            <code value="3400891343281"/>
            <display value="CERNEVIT INJ FL"/>
          </coding>
          <text value="CERNEVIT, pdr pr sol inj ou pr perf"/>
        </code>
        <amount>
          <numerator>
            <value value="1"/>
            <system value="http://standardterms.edqm.eu"/>
            <code value="15060000"/>
          </numerator>
        </amount>
      </Medication>
    </resource>
  </entry>
  <entry>
    <resource>
      <Medication>
        <id value="med-Compound-6166-6"/>
        <meta>
          <profile value="https://hl7.fr/fhir/fr/medication/StructureDefinition/fr-medication-noncompound"/>
        </meta>
        <text>
          <status value="generated"/><div xmlns="http://www.w3.org/1999/xhtml"><a name="Medication_med-Compound-6166-6"> </a><p class="res-header-id"><b>Generated Narrative: Medication med-Compound-6166-6</b></p><a name="med-Compound-6166-6"> </a><a name="hcmed-Compound-6166-6"> </a><a name="med-Compound-6166-6-en-US"> </a><p><b>code</b>: <span title="Codes:{http://data.esante.gouv.fr/ansm/medicament/UCD 3400891780475}">SODIUM CHLORURE 0.9% (Labo B BRAUN), sol pr perf, poche 500 mL (ECOFLAC)</span></p><p><b>amount</b>: 1(unit 15005000 from http://standardterms.edqm.eu)<span style="background: LightGoldenRodYellow"> (Details: standardterms.edqm.eu  code15005000 = 'Bag')</span>/</p><p><b style="color: maroon">Exception Generating Narrative: Cannot invoke &quot;org.hl7.fhir.r5.renderers.utils.ResourceWrapper.has(String)&quot; because &quot;q&quot; is null </b></p></div>
        </text>
        <code>
          <coding>
            <system value="http://data.esante.gouv.fr/ansm/medicament/UCD"/>
            <code value="3400891780475"/>
            <display value="SODIUM 0,9% BBM INJ P.E500ML"/>
          </coding>
          <text value="SODIUM CHLORURE 0.9% (Labo B BRAUN), sol pr perf, poche 500 mL (ECOFLAC)"/>
        </code>
        <amount>
          <numerator>
            <value value="1"/>
            <system value="http://standardterms.edqm.eu"/>
            <code value="15005000"/>
          </numerator>
        </amount>
      </Medication>
    </resource>
  </entry>
  <entry>
    <resource>
      <Medication>
        <id value="med-Compound-6166-C"/>
        <meta>
          <profile value="https://hl7.fr/fhir/fr/medication/StructureDefinition/fr-medication-compound2"/>
        </meta>
        <text>
          <status value="generated"/><div xmlns="http://www.w3.org/1999/xhtml"><a name="Medication_med-Compound-6166-C"> </a><p class="res-header-id"><b>Generated Narrative: Medication med-Compound-6166-C</b></p><a name="med-Compound-6166-C"> </a><a name="hcmed-Compound-6166-C"> </a><a name="med-Compound-6166-C-en-US"> </a><p><b>code</b>: <span title="Codes:">NUTRYELT, sol à diluer pr perf, amp 10 mL + POTASSIUM CHLORURE 1 g (10% Labo COOPER), sol à diluer pr perf, amp 10 mL + MAGNESIUM CHLORURE 1 g (Labo LAVOISIER), sol inj, IV, amp 10 mL + LEVOFOLINATE DE CALCIUM 25 mg (Labo ZENTIVA), sol inj, IM IV, flac 2.5 mL + CERNEVIT, pdr pr sol inj ou pr perf + SODIUM CHLORURE 0.9% (Labo B BRAUN), sol pr perf, poche 500 mL (ECOFLAC)</span></p><blockquote><p><b>ingredient</b></p><p><b>item</b>: <code>#med-Compound-6166-1</code></p></blockquote><blockquote><p><b>ingredient</b></p><p><b>item</b>: <code>#med-Compound-6166-2</code></p></blockquote><blockquote><p><b>ingredient</b></p><p><b>item</b>: <code>#med-Compound-6166-3</code></p></blockquote><blockquote><p><b>ingredient</b></p><p><b>item</b>: <code>#med-Compound-6166-4</code></p></blockquote><blockquote><p><b>ingredient</b></p><p><b>item</b>: <code>#med-Compound-6166-5</code></p></blockquote><blockquote><p><b>ingredient</b></p><p><b>item</b>: <code>#med-Compound-6166-6</code></p></blockquote></div>
        </text>
        <code>
          <text value="NUTRYELT, sol à diluer pr perf, amp 10 mL + POTASSIUM CHLORURE 1 g (10% Labo COOPER), sol à diluer pr perf, amp 10 mL + MAGNESIUM CHLORURE 1 g (Labo LAVOISIER), sol inj, IV, amp 10 mL + LEVOFOLINATE DE CALCIUM 25 mg (Labo ZENTIVA), sol inj, IM IV, flac 2.5 mL + CERNEVIT, pdr pr sol inj ou pr perf + SODIUM CHLORURE 0.9% (Labo B BRAUN), sol pr perf, poche 500 mL (ECOFLAC)"/>
        </code>
        <ingredient>
          <itemReference>
            <reference value="#med-Compound-6166-1"/>
          </itemReference>
        </ingredient>
        <ingredient>
          <itemReference>
            <reference value="#med-Compound-6166-2"/>
          </itemReference>
        </ingredient>
        <ingredient>
          <itemReference>
            <reference value="#med-Compound-6166-3"/>
          </itemReference>
        </ingredient>
        <ingredient>
          <itemReference>
            <reference value="#med-Compound-6166-4"/>
          </itemReference>
        </ingredient>
        <ingredient>
          <itemReference>
            <reference value="#med-Compound-6166-5"/>
          </itemReference>
        </ingredient>
        <ingredient>
          <itemReference>
            <reference value="#med-Compound-6166-6"/>
          </itemReference>
        </ingredient>
      </Medication>
    </resource>
  </entry>
  <entry>
    <resource>
      <Observation>
        <id value="Obs-Compound-6166-1"/>
        <meta>
          <profile value="https://hl7.fr/ig/fhir/core/StructureDefinition/fr-core-observation-body-height"/>
        </meta>
        <text>
          <status value="generated"/><div xmlns="http://www.w3.org/1999/xhtml"><a name="Observation_Obs-Compound-6166-1"> </a><p class="res-header-id"><b>Generated Narrative: Observation Obs-Compound-6166-1</b></p><a name="Obs-Compound-6166-1"> </a><a name="hcObs-Compound-6166-1"> </a><a name="Obs-Compound-6166-1-en-US"> </a><p><b>status</b>: Final</p><p><b>category</b>: <span title="Codes:{http://terminology.hl7.org/CodeSystem/observation-category vital-signs}">Vital Signs</span></p><p><b>code</b>: <span title="Codes:{http://loinc.org 8302-2}">Body height</span></p><p><b>subject</b>: <code>#Patient-Compound-6166</code></p><p><b>effective</b>: 2023-05-03 11:30:00+0200</p><p><b>value</b>: 181 cm<span style="background: LightGoldenRodYellow"> (Details: UCUM  codecm = 'cm')</span></p></div>
        </text>
        <status value="final"/>
        <category>
          <coding>
            <system value="http://terminology.hl7.org/CodeSystem/observation-category"/>
            <code value="vital-signs"/>
          </coding>
        </category>
        <code>
          <coding>
            <system value="http://loinc.org"/>
            <code value="8302-2"/>
          </coding>
        </code>
        <subject>
          <reference value="#Patient-Compound-6166"/>
        </subject>
        <effectiveDateTime value="2023-05-03T11:30:00+02:00"/>
        <valueQuantity>
          <value value="181"/>
          <unit value="cm"/>
          <system value="http://unitsofmeasure.org"/>
          <code value="cm"/>
        </valueQuantity>
      </Observation>
    </resource>
  </entry>
  <entry>
    <resource>
      <Observation>
        <id value="Obs-Compound-6166-2"/>
        <meta>
          <profile value="https://hl7.fr/ig/fhir/core/StructureDefinition/fr-core-observation-body-weight"/>
        </meta>
        <text>
          <status value="generated"/><div xmlns="http://www.w3.org/1999/xhtml"><a name="Observation_Obs-Compound-6166-2"> </a><p class="res-header-id"><b>Generated Narrative: Observation Obs-Compound-6166-2</b></p><a name="Obs-Compound-6166-2"> </a><a name="hcObs-Compound-6166-2"> </a><a name="Obs-Compound-6166-2-en-US"> </a><p><b>status</b>: Final</p><p><b>category</b>: <span title="Codes:{http://terminology.hl7.org/CodeSystem/observation-category vital-signs}">Vital Signs</span></p><p><b>code</b>: <span title="Codes:{http://loinc.org 29463-7}">Body weight</span></p><p><b>subject</b>: <code>#Patient-Compound-6166</code></p><p><b>effective</b>: 2023-05-03 11:30:00+0200</p><p><b>value</b>: 79 kg<span style="background: LightGoldenRodYellow"> (Details: UCUM  codekg = 'kg')</span></p></div>
        </text>
        <status value="final"/>
        <category>
          <coding>
            <system value="http://terminology.hl7.org/CodeSystem/observation-category"/>
            <code value="vital-signs"/>
          </coding>
        </category>
        <code>
          <coding>
            <system value="http://loinc.org"/>
            <code value="29463-7"/>
          </coding>
        </code>
        <subject>
          <reference value="#Patient-Compound-6166"/>
        </subject>
        <effectiveDateTime value="2023-05-03T11:30:00+02:00"/>
        <valueQuantity>
          <value value="79"/>
          <unit value="kg"/>
          <system value="http://unitsofmeasure.org"/>
          <code value="kg"/>
        </valueQuantity>
      </Observation>
    </resource>
  </entry>
  <entry>
    <resource>
      <Observation>
        <id value="Obs-Compound-6166-3"/>
        <text>
          <status value="generated"/><div xmlns="http://www.w3.org/1999/xhtml"><a name="Observation_Obs-Compound-6166-3"> </a><p class="res-header-id"><b>Generated Narrative: Observation Obs-Compound-6166-3</b></p><a name="Obs-Compound-6166-3"> </a><a name="hcObs-Compound-6166-3"> </a><a name="Obs-Compound-6166-3-en-US"> </a><p><b>status</b>: Final</p><p><b>category</b>: <span title="Codes:{http://terminology.hl7.org/CodeSystem/observation-category vital-signs}">Vital Signs</span></p><p><b>code</b>: <span title="Codes:{http://loinc.org 33558-8}">Creatinine renal clearance in Urine and Serum or Plasma collected for unspecified duration</span></p><p><b>subject</b>: <code>#Patient-Compound-6166</code></p><p><b>effective</b>: 2023-05-03 11:30:00+0200</p><p><b>value</b>: 0 µmol/l<span style="background: LightGoldenRodYellow"> (Details: UCUM  codeumol/L = 'umol/L')</span></p></div>
        </text>
        <status value="final"/>
        <category>
          <coding>
            <system value="http://terminology.hl7.org/CodeSystem/observation-category"/>
            <code value="vital-signs"/>
          </coding>
        </category>
        <code>
          <coding>
            <system value="http://loinc.org"/>
            <code value="33558-8"/>
          </coding>
        </code>
        <subject>
          <reference value="#Patient-Compound-6166"/>
        </subject>
        <effectiveDateTime value="2023-05-03T11:30:00+02:00"/>
        <valueQuantity>
          <value value="0"/>
          <unit value="µmol/l"/>
          <system value="http://unitsofmeasure.org"/>
          <code value="umol/L"/>
        </valueQuantity>
      </Observation>
    </resource>
  </entry>
  <entry>
    <resource>
      <MedicationRequest>
        <meta>
          <profile value="https://hl7.fr/fhir/fr/medication/StructureDefinition/fr-inpatient-medicationrequest3"/>
        </meta>
        <text>
          <status value="generated"/><div xmlns="http://www.w3.org/1999/xhtml"><a name="MedicationRequest_null"> </a><p class="res-header-id"><b>Generated Narrative: MedicationRequest </b></p><p><b>identifier</b>: <code>https://somehospital.fr/PrescrptionLine-ID</code>/6166</p><p><b>status</b>: Active</p><p><b>intent</b>: Order</p><p><b>priority</b>: Routine</p><p><b>medication</b>: <code>#med-med-Compound-6166-C</code></p><p><b>subject</b>: <code>#Patient-Compound-6166</code></p><p><b>encounter</b>: Identifier: <code>https://somehospital.fr/Sejour</code>/3</p><p><b>supportingInformation</b>: </p><ul><li><code>#Obs-Compound-6166-1</code></li><li><code>#Obs-Compound-6166-2</code></li><li><code>#Obs-Compound-6166-3</code></li></ul><p><b>authoredOn</b>: 2023-05-03 11:30:00+0200</p><p><b>requester</b>: <code>#Practitioner-Compound-6166</code></p><p><b>groupIdentifier</b>: <code>https://somehospital.fr/Prescrption-ID</code>/IdentifiantAttribuéPourLaTraductionEnFHIR</p><p><b>note</b>: Prescription textuelle: 1 préparation en continu sur 12h00 par jour</p><blockquote><p><b>dosageInstruction</b></p><p><b>timing</b>: Duration 720hours , Once per 12 hours</p><p><b>route</b>: <span title="Codes:{http://standardterms.edqm.eu 20045000}">Voie intraveineuse</span></p><h3>DoseAndRates</h3><table class="grid"><tr><td style="display: none">-</td><td><b>Dose[x]</b></td></tr><tr><td style="display: none">*</td><td>1 dose</td></tr></table></blockquote></div>
        </text>
        <identifier>
          <system value="https://somehospital.fr/PrescrptionLine-ID"/>
          <value value="6166"/>
        </identifier>
        <status value="active"/>
        <intent value="order"/>
        <priority value="routine"/>
        <medicationReference>
          <reference value="#med-med-Compound-6166-C"/>
        </medicationReference>
        <subject>
          <reference value="#Patient-Compound-6166"/>
        </subject>
        <encounter>
          <identifier>
            <system value="https://somehospital.fr/Sejour"/>
            <value value="3"/>
          </identifier>
        </encounter>
        <supportingInformation>
          <reference value="#Obs-Compound-6166-1"/>
        </supportingInformation>
        <supportingInformation>
          <reference value="#Obs-Compound-6166-2"/>
        </supportingInformation>
        <supportingInformation>
          <reference value="#Obs-Compound-6166-3"/>
        </supportingInformation>
        <authoredOn value="2023-05-03T11:30:00+02:00"/>
        <requester>
          <reference value="#Practitioner-Compound-6166"/>
        </requester>
        <groupIdentifier>
          <system value="https://somehospital.fr/Prescrption-ID"/>
          <value value="IdentifiantAttribuéPourLaTraductionEnFHIR"/>
        </groupIdentifier>
        <note>
          <text value="Prescription textuelle: 1 préparation en continu sur 12h00 par jour"/>
        </note>
        <dosageInstruction>
          <timing>
            <repeat>
              <boundsPeriod>
                <start value="2023-05-03T10:00:00+02:00"/>
              </boundsPeriod>
              <duration value="720"/>
              <durationUnit value="min"/>
              <frequency value="1"/>
              <period value="12"/>
              <periodUnit value="h"/>
              <timeOfDay value="10:00:00"/>
            </repeat>
          </timing>
          <route>
            <coding>
              <system value="http://standardterms.edqm.eu"/>
              <code value="20045000"/>
              <display value="Voie intraveineuse"/>
            </coding>
          </route>
          <doseAndRate>
            <doseQuantity>
              <value value="1"/>
              <unit value="dose"/>
            </doseQuantity>
          </doseAndRate>
        </dosageInstruction>
      </MedicationRequest>
    </resource>
  </entry>
</Bundle>