{
  "resourceType" : "Bundle",
  "id" : "MultiLine-Presc-METHOTREXATE-LEDERFOLINE",
  "meta" : {
    "profile" : ["https://hl7.fr/ig/fhir/medication/StructureDefinition/fr-prescription-bundle-for-example"]
  },
  "type" : "searchset",
  "entry" : [{
    "resource" : {
      "resourceType" : "MedicationRequest",
      "id" : "medicationrequest-Presc-METHOTREXATE",
      "meta" : {
        "profile" : ["https://hl7.fr/ig/fhir/medication/StructureDefinition/fr-inpatient-medicationrequest",
        "https://hl7.fr/fhir/fr/medication/StructureDefinition/fr-inpatient-medicationrequest"]
      },
      "text" : {
        "status" : "generated",
        "div" : "<div xmlns=\"http://www.w3.org/1999/xhtml\"><a name=\"MedicationRequest_medicationrequest-Presc-METHOTREXATE\"> </a><p class=\"res-header-id\"><b>Narratif généré : PrescriptionMédicamenteuseTODO medicationrequest-Presc-METHOTREXATE</b></p><a name=\"medicationrequest-Presc-METHOTREXATE\"> </a><a name=\"hcmedicationrequest-Presc-METHOTREXATE\"> </a><div style=\"display: inline-block; background-color: #d9e0e7; padding: 6px; margin: 4px; border: 1px solid #8da1b4; border-radius: 5px; line-height: 60%\"><p style=\"margin-bottom: 0px\"/><p style=\"margin-bottom: 0px\">Profils: <a href=\"StructureDefinition-fr-inpatient-medicationrequest.html\">FR Inpatient MedicationRequest</a>, <code>https://hl7.fr/fhir/fr/medication/StructureDefinition/fr-inpatient-medicationrequest</code></p></div><p><b>status</b>: Active</p><p><b>intent</b>: Order</p><p><b>priority</b>: Routine</p><p><b>medication</b>: <span title=\"Codes:{http://data.esante.gouv.fr/ansm/medicament/UCD 3400894357391}\">METHOTREX.ACC 25MG/ML FL2ML</span></p><p><b>subject</b>: <a href=\"Patient/30003\">Patient/30003</a></p><p><b>authoredOn</b>: 2025-05-02 14:48:44+0000</p><p><b>requester</b>: <a href=\"Practitioner/smart-Practitioner-3003\">Practitioner/smart-Practitioner-3003</a></p><p><b>groupIdentifier</b>: <code>https://somehospital.fr/Prescrption-ID</code>/Presc-30003</p><blockquote><p><b>dosageInstruction</b></p><p><b>timing</b>: Once</p><p><b>route</b>: <span title=\"Codes:{http://standardterms.edqm.eu 20035000}\">Voie intramusculaire</span></p><h3>DoseAndRates</h3><table class=\"grid\"><tr><td style=\"display: none\">-</td><td><b>Dose[x]</b></td></tr><tr><td style=\"display: none\">*</td><td>2 Flacon<span style=\"background: LightGoldenRodYellow\"> (Details: standardterms.edqm.eu  code15009000 = 'Bottle')</span></td></tr></table></blockquote></div>"
      },
      "status" : "active",
      "intent" : "order",
      "priority" : "routine",
      "medicationCodeableConcept" : {
        "coding" : [{
          "system" : "http://data.esante.gouv.fr/ansm/medicament/UCD",
          "code" : "3400894357391",
          "display" : "METHOTREX.ACC 25MG/ML FL2ML"
        }]
      },
      "subject" : {
        "reference" : "Patient/30003"
      },
      "authoredOn" : "2025-05-02T14:48:44.461Z",
      "requester" : {
        "reference" : "Practitioner/smart-Practitioner-3003"
      },
      "groupIdentifier" : {
        "system" : "https://somehospital.fr/Prescrption-ID",
        "value" : "Presc-30003"
      },
      "dosageInstruction" : [{
        "timing" : {
          "repeat" : {
            "boundsPeriod" : {
              "start" : "2025-05-02T14:49:00Z",
              "end" : "2025-05-30T14:48:59Z"
            },
            "frequency" : 1,
            "periodUnit" : "wk",
            "dayOfWeek" : ["fri"]
          }
        },
        "route" : {
          "coding" : [{
            "system" : "http://standardterms.edqm.eu",
            "code" : "20035000",
            "display" : "Voie intramusculaire"
          }],
          "text" : "Voie intramusculaire"
        },
        "doseAndRate" : [{
          "doseQuantity" : {
            "value" : 2,
            "unit" : "Flacon",
            "system" : "http://standardterms.edqm.eu",
            "code" : "15009000"
          }
        }]
      }]
    }
  },
  {
    "resource" : {
      "resourceType" : "MedicationRequest",
      "id" : "medicationrequest-Presc-LEDERFOLINE",
      "meta" : {
        "profile" : ["https://hl7.fr/ig/fhir/medication/StructureDefinition/fr-inpatient-medicationrequest-exclusion",
        "https://hl7.fr/fhir/fr/medication/StructureDefinition/fr-inpatient-medicationrequest-exclusion"]
      },
      "text" : {
        "status" : "generated",
        "div" : "<div xmlns=\"http://www.w3.org/1999/xhtml\"><a name=\"MedicationRequest_medicationrequest-Presc-LEDERFOLINE\"> </a><p class=\"res-header-id\"><b>Narratif généré : PrescriptionMédicamenteuseTODO medicationrequest-Presc-LEDERFOLINE</b></p><a name=\"medicationrequest-Presc-LEDERFOLINE\"> </a><a name=\"hcmedicationrequest-Presc-LEDERFOLINE\"> </a><div style=\"display: inline-block; background-color: #d9e0e7; padding: 6px; margin: 4px; border: 1px solid #8da1b4; border-radius: 5px; line-height: 60%\"><p style=\"margin-bottom: 0px\"/><p style=\"margin-bottom: 0px\">Profils: <a href=\"StructureDefinition-fr-inpatient-medicationrequest-exclusion.html\">FR Inpatient MedicationRequest Exclusion</a>, <code>https://hl7.fr/fhir/fr/medication/StructureDefinition/fr-inpatient-medicationrequest-exclusion</code></p></div><p><b>status</b>: Active</p><p><b>intent</b>: Order</p><p><b>priority</b>: Routine</p><p><b>medication</b>: <span title=\"Codes:{http://data.esante.gouv.fr/ansm/medicament/UCD 3400891463088}\">LEDERFOLINE 25MG CPR</span></p><p><b>subject</b>: <a href=\"Patient/30003\">Patient/30003</a></p><p><b>authoredOn</b>: 2025-05-02 14:48:44+0000</p><p><b>requester</b>: <a href=\"Practitioner/smart-Practitioner-3003\">Practitioner/smart-Practitioner-3003</a></p><p><b>groupIdentifier</b>: <code>https://somehospital.fr/Prescrption-ID</code>/Presc-30003</p><blockquote><p><b>dosageInstruction</b></p><p><b>timing</b>: Once</p><p><b>route</b>: <span title=\"Codes:{http://standardterms.edqm.eu 20053000}\">Voie orale</span></p><h3>DoseAndRates</h3><table class=\"grid\"><tr><td style=\"display: none\">-</td><td><b>Dose[x]</b></td></tr><tr><td style=\"display: none\">*</td><td>2 Comprimé<span style=\"background: LightGoldenRodYellow\"> (Details: standardterms.edqm.eu  code15054000 = 'Tablet')</span></td></tr></table></blockquote></div>"
      },
      "status" : "active",
      "intent" : "order",
      "priority" : "routine",
      "medicationCodeableConcept" : {
        "coding" : [{
          "system" : "http://data.esante.gouv.fr/ansm/medicament/UCD",
          "code" : "3400891463088",
          "display" : "LEDERFOLINE 25MG CPR"
        }]
      },
      "subject" : {
        "reference" : "Patient/30003"
      },
      "authoredOn" : "2025-05-02T14:48:44.461Z",
      "requester" : {
        "reference" : "Practitioner/smart-Practitioner-3003"
      },
      "groupIdentifier" : {
        "system" : "https://somehospital.fr/Prescrption-ID",
        "value" : "Presc-30003"
      },
      "dosageInstruction" : [{
        "timing" : {
          "repeat" : {
            "boundsPeriod" : {
              "start" : "2025-05-02T14:49:00Z",
              "end" : "2025-05-30T14:48:59Z"
            },
            "frequency" : 1,
            "periodUnit" : "wk",
            "dayOfWeek" : ["fri"]
          }
        },
        "route" : {
          "coding" : [{
            "system" : "http://standardterms.edqm.eu",
            "code" : "20053000",
            "display" : "Voie orale"
          }],
          "text" : "Voie orale"
        },
        "doseAndRate" : [{
          "doseQuantity" : {
            "value" : 2,
            "unit" : "Comprimé",
            "system" : "http://standardterms.edqm.eu",
            "code" : "15054000"
          }
        }]
      }]
    }
  },
  {
    "resource" : {
      "resourceType" : "RequestGroup",
      "id" : "requestgroup-Presc-METHOTREXATE-LEDERFOLINE",
      "meta" : {
        "profile" : ["https://hl7.fr/ig/fhir/medication/StructureDefinition/fr-requestgroup-for-prescription",
        "https://hl7.fr/fhir/fr/medication/StructureDefinition/fr-requestgroup-for-prescription"]
      },
      "text" : {
        "status" : "generated",
        "div" : "<div xmlns=\"http://www.w3.org/1999/xhtml\"><a name=\"RequestGroup_requestgroup-Presc-METHOTREXATE-LEDERFOLINE\"> </a><p class=\"res-header-id\"><b>Narratif généré : RequestGroup requestgroup-Presc-METHOTREXATE-LEDERFOLINE</b></p><a name=\"requestgroup-Presc-METHOTREXATE-LEDERFOLINE\"> </a><a name=\"hcrequestgroup-Presc-METHOTREXATE-LEDERFOLINE\"> </a><div style=\"display: inline-block; background-color: #d9e0e7; padding: 6px; margin: 4px; border: 1px solid #8da1b4; border-radius: 5px; line-height: 60%\"><p style=\"margin-bottom: 0px\"/><p style=\"margin-bottom: 0px\">Profils: <a href=\"StructureDefinition-fr-requestgroup-for-prescription.html\">FR RequestGroup For Prescription</a>, <code>https://hl7.fr/fhir/fr/medication/StructureDefinition/fr-requestgroup-for-prescription</code></p></div><p><b>groupIdentifier</b>: <code>https://somehospital.fr/Prescrption-ID</code>/Presc-30003</p><p><b>status</b>: Active</p><p><b>intent</b>: Order</p><p><b>priority</b>: Routine</p><p><b>subject</b>: <a href=\"Patient/30003\">Patient/30003</a></p><blockquote><p><b>action</b></p><blockquote><p><b>id</b></p>Action1</blockquote><h3>RelatedActions</h3><table class=\"grid\"><tr><td style=\"display: none\">-</td><td><b>ActionId</b></td><td><b>Relationship</b></td></tr><tr><td style=\"display: none\">*</td><td>Action2</td><td>Concurrent</td></tr></table><p><b>resource</b>: <code>#medicationrequest-Presc-LEDERFOLINE</code></p></blockquote><blockquote><p><b>action</b></p><blockquote><p><b>id</b></p>Action2</blockquote><p><b>resource</b>: <code>#medicationrequest-Presc-METHOTREXATE</code></p></blockquote></div>"
      },
      "groupIdentifier" : {
        "system" : "https://somehospital.fr/Prescrption-ID",
        "value" : "Presc-30003"
      },
      "status" : "active",
      "intent" : "order",
      "priority" : "routine",
      "subject" : {
        "reference" : "Patient/30003"
      },
      "action" : [{
        "id" : "Action1",
        "relatedAction" : [{
          "actionId" : "Action2",
          "relationship" : "concurrent"
        }],
        "resource" : {
          "reference" : "#medicationrequest-Presc-LEDERFOLINE"
        }
      },
      {
        "id" : "Action2",
        "resource" : {
          "reference" : "#medicationrequest-Presc-METHOTREXATE"
        }
      }]
    }
  }]
}