{
  "resourceType" : "Bundle",
  "id" : "MultiLine-Presc-MARSILID-ZOMIGORO",
  "meta" : {
    "profile" : ["https://hl7.fr/ig/fhir/medication/StructureDefinition/fr-prescription-bundle-for-example"]
  },
  "type" : "searchset",
  "entry" : [{
    "resource" : {
      "resourceType" : "MedicationRequest",
      "id" : "medicationrequest-Presc-ZOMIGORO",
      "meta" : {
        "profile" : ["https://hl7.fr/fhir/fr/medication/StructureDefinition/fr-inpatient-medicationrequest"]
      },
      "text" : {
        "status" : "generated",
        "div" : "<div xmlns=\"http://www.w3.org/1999/xhtml\"><a name=\"MedicationRequest_medicationrequest-Presc-ZOMIGORO\"> </a><p class=\"res-header-id\"><b>Narratif généré : PrescriptionMédicamenteuseTODO medicationrequest-Presc-ZOMIGORO</b></p><a name=\"medicationrequest-Presc-ZOMIGORO\"> </a><a name=\"hcmedicationrequest-Presc-ZOMIGORO\"> </a><div style=\"display: inline-block; background-color: #d9e0e7; padding: 6px; margin: 4px; border: 1px solid #8da1b4; border-radius: 5px; line-height: 60%\"><p style=\"margin-bottom: 0px\"/><p style=\"margin-bottom: 0px\">Profil: <code>https://hl7.fr/fhir/fr/medication/StructureDefinition/fr-inpatient-medicationrequest</code></p></div><p><b>status</b>: Unknown</p><p><b>intent</b>: Option</p><p><b>priority</b>: Routine</p><p><b>medication</b>: <span title=\"Codes:{http://data.esante.gouv.fr/ansm/medicament/UCD 3400892210339}\">ZOMIGORO 2,5MG CPR DISP</span></p><p><b>subject</b>: <a href=\"Patient/30001\">Patient/30001</a></p><p><b>requester</b>: <a href=\"Practitioner/smart-Practitioner-3001\">Practitioner/smart-Practitioner-3001</a></p><p><b>groupIdentifier</b>: <code>https://somehospital.fr/Prescrption-ID</code>/Presc-30001</p></div>"
      },
      "status" : "unknown",
      "intent" : "option",
      "priority" : "routine",
      "medicationCodeableConcept" : {
        "coding" : [{
          "system" : "http://data.esante.gouv.fr/ansm/medicament/UCD",
          "code" : "3400892210339",
          "display" : "ZOMIGORO 2,5MG CPR DISP"
        }]
      },
      "subject" : {
        "reference" : "Patient/30001"
      },
      "requester" : {
        "reference" : "Practitioner/smart-Practitioner-3001"
      },
      "groupIdentifier" : {
        "system" : "https://somehospital.fr/Prescrption-ID",
        "value" : "Presc-30001"
      }
    }
  },
  {
    "resource" : {
      "resourceType" : "MedicationRequest",
      "id" : "medicationrequest-Presc-MARSILID",
      "meta" : {
        "profile" : ["https://hl7.fr/ig/fhir/medication/StructureDefinition/fr-inpatient-medicationrequest",
        "https://hl7.fr/fhir/fr/medication/StructureDefinition/fr-inpatient-medicationrequest"]
      },
      "text" : {
        "status" : "generated",
        "div" : "<div xmlns=\"http://www.w3.org/1999/xhtml\"><a name=\"MedicationRequest_medicationrequest-Presc-MARSILID\"> </a><p class=\"res-header-id\"><b>Narratif généré : PrescriptionMédicamenteuseTODO medicationrequest-Presc-MARSILID</b></p><a name=\"medicationrequest-Presc-MARSILID\"> </a><a name=\"hcmedicationrequest-Presc-MARSILID\"> </a><div style=\"display: inline-block; background-color: #d9e0e7; padding: 6px; margin: 4px; border: 1px solid #8da1b4; border-radius: 5px; line-height: 60%\"><p style=\"margin-bottom: 0px\"/><p style=\"margin-bottom: 0px\">Profils: <a href=\"StructureDefinition-fr-inpatient-medicationrequest.html\">FR Inpatient MedicationRequest</a>, <code>https://hl7.fr/fhir/fr/medication/StructureDefinition/fr-inpatient-medicationrequest</code></p></div><p><b>status</b>: Active</p><p><b>intent</b>: Order</p><p><b>priority</b>: Routine</p><p><b>medication</b>: <span title=\"Codes:{http://data.esante.gouv.fr/ansm/medicament/UCD 3400892782287}\">MARSILID 50MG CPR</span></p><p><b>subject</b>: <a href=\"Patient/30001\">Patient/30001</a></p><p><b>authoredOn</b>: 2025-05-02 14:48:44+0000</p><p><b>requester</b>: <a href=\"Practitioner/smart-Practitioner-30001\">Practitioner/smart-Practitioner-30001</a></p><p><b>groupIdentifier</b>: <code>https://somehospital.fr/Prescrption-ID</code>/Presc-30001</p><blockquote><p><b>dosageInstruction</b></p><p><b>sequence</b>: 1</p><p><b>timing</b>: Once</p><p><b>route</b>: <span title=\"Codes:{http://standardterms.edqm.eu 20053000}\">Voie orale</span></p><h3>DoseAndRates</h3><table class=\"grid\"><tr><td style=\"display: none\">-</td><td><b>Dose[x]</b></td></tr><tr><td style=\"display: none\">*</td><td>1 Comprimé<span style=\"background: LightGoldenRodYellow\"> (Details: standardterms.edqm.eu  code15054000 = 'Tablet')</span></td></tr></table></blockquote></div>"
      },
      "status" : "active",
      "intent" : "order",
      "priority" : "routine",
      "medicationCodeableConcept" : {
        "coding" : [{
          "system" : "http://data.esante.gouv.fr/ansm/medicament/UCD",
          "code" : "3400892782287",
          "display" : "MARSILID 50MG CPR"
        }]
      },
      "subject" : {
        "reference" : "Patient/30001"
      },
      "authoredOn" : "2025-05-02T14:48:44.461Z",
      "requester" : {
        "reference" : "Practitioner/smart-Practitioner-30001"
      },
      "groupIdentifier" : {
        "system" : "https://somehospital.fr/Prescrption-ID",
        "value" : "Presc-30001"
      },
      "dosageInstruction" : [{
        "sequence" : 1,
        "timing" : {
          "repeat" : {
            "boundsPeriod" : {
              "start" : "2025-05-02T14:49:00Z",
              "end" : "2025-05-31T14:48:59Z"
            },
            "frequency" : 1,
            "periodUnit" : "d"
          }
        },
        "route" : {
          "coding" : [{
            "system" : "http://standardterms.edqm.eu",
            "code" : "20053000",
            "display" : "Voie orale"
          }],
          "text" : "Voie orale"
        },
        "doseAndRate" : [{
          "doseQuantity" : {
            "value" : 1,
            "unit" : "Comprimé",
            "system" : "http://standardterms.edqm.eu",
            "code" : "15054000"
          }
        }]
      }]
    }
  },
  {
    "resource" : {
      "resourceType" : "RequestGroup",
      "id" : "requestgroup-Presc-MARSILID-ZOMIGORO",
      "meta" : {
        "profile" : ["https://hl7.fr/ig/fhir/medication/StructureDefinition/fr-requestgroup-for-prescription",
        "https://hl7.fr/fhir/fr/medication/StructureDefinition/fr-requestgroup-for-prescription"]
      },
      "text" : {
        "status" : "generated",
        "div" : "<div xmlns=\"http://www.w3.org/1999/xhtml\"><a name=\"RequestGroup_requestgroup-Presc-MARSILID-ZOMIGORO\"> </a><p class=\"res-header-id\"><b>Narratif généré : RequestGroup requestgroup-Presc-MARSILID-ZOMIGORO</b></p><a name=\"requestgroup-Presc-MARSILID-ZOMIGORO\"> </a><a name=\"hcrequestgroup-Presc-MARSILID-ZOMIGORO\"> </a><div style=\"display: inline-block; background-color: #d9e0e7; padding: 6px; margin: 4px; border: 1px solid #8da1b4; border-radius: 5px; line-height: 60%\"><p style=\"margin-bottom: 0px\"/><p style=\"margin-bottom: 0px\">Profils: <a href=\"StructureDefinition-fr-requestgroup-for-prescription.html\">FR RequestGroup For Prescription</a>, <code>https://hl7.fr/fhir/fr/medication/StructureDefinition/fr-requestgroup-for-prescription</code></p></div><p><b>groupIdentifier</b>: <code>https://somehospital.fr/Prescrption-ID</code>/Presc-30001</p><p><b>status</b>: Active</p><p><b>intent</b>: Order</p><p><b>priority</b>: Routine</p><p><b>subject</b>: <a href=\"Patient/30001\">Patient/30001</a></p><blockquote><p><b>action</b></p><blockquote><p><b>id</b></p>Action1</blockquote><h3>Conditions</h3><table class=\"grid\"><tr><td style=\"display: none\">-</td><td><b>Kind</b></td></tr><tr><td style=\"display: none\">*</td><td>Stop</td></tr></table><h3>RelatedActions</h3><table class=\"grid\"><tr><td style=\"display: none\">-</td><td><b>Extension</b></td><td><b>ActionId</b></td><td><b>Relationship</b></td></tr><tr><td style=\"display: none\">*</td><td/><td>Action2</td><td>Concurrent</td></tr></table><p><b>resource</b>: <code>#medicationrequest-Presc-ZOMIGORO</code></p></blockquote><blockquote><p><b>action</b></p><blockquote><p><b>id</b></p>Action2</blockquote><p><b>resource</b>: <code>#medicationrequest-Presc-MARSILID</code></p></blockquote></div>"
      },
      "groupIdentifier" : {
        "system" : "https://somehospital.fr/Prescrption-ID",
        "value" : "Presc-30001"
      },
      "status" : "active",
      "intent" : "order",
      "priority" : "routine",
      "subject" : {
        "reference" : "Patient/30001"
      },
      "action" : [{
        "id" : "Action1",
        "condition" : [{
          "kind" : "stop"
        }],
        "relatedAction" : [{
          "extension" : [{
            "url" : "https://hl7.fr/ig/fhir/medication/StructureDefinition/fr-additional-action-relationship",
            "valueCode" : "EXCL"
          }],
          "actionId" : "Action2",
          "relationship" : "concurrent"
        }],
        "resource" : {
          "reference" : "#medicationrequest-Presc-ZOMIGORO"
        }
      },
      {
        "id" : "Action2",
        "resource" : {
          "reference" : "#medicationrequest-Presc-MARSILID"
        }
      }]
    }
  }]
}