<?xml version="1.0" encoding="UTF-8"?>

<Bundle xmlns="http://hl7.org/fhir">
  <id value="Presc-PerfDobutamine-Qsp40mL"/>
  <meta>
    <profile value="https://hl7.fr/ig/fhir/medication/StructureDefinition/fr-prescription-bundle-for-example"/>
  </meta>
  <type value="searchset"/>
  <entry>
    <resource>
      <Medication>
        <id value="medication-1-Presc-PerfDobutamine-Qsp40mL"/>
        <meta>
          <profile value="https://hl7.fr/ig/fhir/medication/StructureDefinition/fr-medication-noncompound"/>
          <profile value="https://hl7.fr/fhir/fr/medication/StructureDefinition/fr-medication-noncompound"/>
        </meta>
        <text>
          <status value="generated"/><div xmlns="http://www.w3.org/1999/xhtml"><a name="Medication_medication-1-Presc-PerfDobutamine-Qsp40mL"> </a><p class="res-header-id"><b>Narratif généré : Médication medication-1-Presc-PerfDobutamine-Qsp40mL</b></p><a name="medication-1-Presc-PerfDobutamine-Qsp40mL"> </a><a name="hcmedication-1-Presc-PerfDobutamine-Qsp40mL"> </a><div style="display: inline-block; background-color: #d9e0e7; padding: 6px; margin: 4px; border: 1px solid #8da1b4; border-radius: 5px; line-height: 60%"><p style="margin-bottom: 0px"/><p style="margin-bottom: 0px">Profils: <a href="StructureDefinition-fr-medication-noncompound.html">FrMedicationNonCompound</a>, <code>https://hl7.fr/fhir/fr/medication/StructureDefinition/fr-medication-noncompound</code></p></div><p><b>code</b>: <span title="Codes:{http://data.esante.gouv.fr/ansm/medicament/codeSMS 100000081844}">DOBUTAMINE</span></p><p><b>amount</b>: 200 mg<span style="background: LightGoldenRodYellow"> (Details: UCUM  codemg = 'mg')</span>/</p><p><b style="color: maroon">Exception Generating Narrative: Cannot invoke &quot;org.hl7.fhir.r5.renderers.utils.ResourceWrapper.has(String)&quot; because &quot;q&quot; is null </b></p></div>
        </text>
        <code>
          <coding>
            <system value="http://data.esante.gouv.fr/ansm/medicament/codeSMS"/>
            <code value="100000081844"/>
            <display value="dobutamine"/>
          </coding>
          <text value="DOBUTAMINE"/>
        </code>
        <amount>
          <numerator>
            <value value="200"/>
            <unit value="mg"/>
            <system value="http://unitsofmeasure.org"/>
            <code value="mg"/>
          </numerator>
        </amount>
      </Medication>
    </resource>
  </entry>
  <entry>
    <resource>
      <Medication>
        <id value="medication-2-Presc-PerfDobutamine-Qsp40mL"/>
        <meta>
          <profile value="https://hl7.fr/ig/fhir/medication/StructureDefinition/fr-medication-noncompound"/>
          <profile value="https://hl7.fr/fhir/fr/medication/StructureDefinition/fr-medication-noncompound"/>
        </meta>
        <text>
          <status value="generated"/><div xmlns="http://www.w3.org/1999/xhtml"><a name="Medication_medication-2-Presc-PerfDobutamine-Qsp40mL"> </a><p class="res-header-id"><b>Narratif généré : Médication medication-2-Presc-PerfDobutamine-Qsp40mL</b></p><a name="medication-2-Presc-PerfDobutamine-Qsp40mL"> </a><a name="hcmedication-2-Presc-PerfDobutamine-Qsp40mL"> </a><div style="display: inline-block; background-color: #d9e0e7; padding: 6px; margin: 4px; border: 1px solid #8da1b4; border-radius: 5px; line-height: 60%"><p style="margin-bottom: 0px"/><p style="margin-bottom: 0px">Profils: <a href="StructureDefinition-fr-medication-noncompound.html">FrMedicationNonCompound</a>, <code>https://hl7.fr/fhir/fr/medication/StructureDefinition/fr-medication-noncompound</code></p></div><p><b>code</b>: <span title="Codes:{http://data.esante.gouv.fr/ansm/medicament/codeSMS 100000078171}">GLUCOSE</span></p><p><b>form</b>: <span title="Codes:{http://standardterms.edqm.eu 11210000}">solution pour perfusion</span></p><h3>Ingredients</h3><table class="grid"><tr><td style="display: none">-</td><td><b>Item[x]</b></td><td><b>Strength</b></td></tr><tr><td style="display: none">*</td><td><span title="Codes:{http://data.esante.gouv.fr/ansm/medicament/codeSMS 100000078171}">GLUCOSE</span></td><td>50 mg<span style="background: LightGoldenRodYellow"> (Details: UCUM  codemg = 'mg')</span>/1 mL<span style="background: LightGoldenRodYellow"> (Details: UCUM  codemL = 'mL')</span></td></tr></table></div>
        </text>
        <code>
          <coding>
            <system value="http://data.esante.gouv.fr/ansm/medicament/codeSMS"/>
            <code value="100000078171"/>
            <display value="glucose"/>
          </coding>
          <text value="GLUCOSE"/>
        </code>
        <form>
          <coding>
            <system value="http://standardterms.edqm.eu"/>
            <code value="11210000"/>
            <display value="solution pour perfusion"/>
          </coding>
          <text value="solution pour perfusion"/>
        </form>
        <ingredient>
          <itemCodeableConcept>
            <coding>
              <system value="http://data.esante.gouv.fr/ansm/medicament/codeSMS"/>
              <code value="100000078171"/>
              <display value="glucose"/>
            </coding>
            <text value="GLUCOSE"/>
          </itemCodeableConcept>
          <strength>
            <numerator>
              <value value="50"/>
              <unit value="mg"/>
              <system value="http://unitsofmeasure.org"/>
              <code value="mg"/>
            </numerator>
            <denominator>
              <value value="1"/>
              <unit value="mL"/>
              <system value="http://unitsofmeasure.org"/>
              <code value="mL"/>
            </denominator>
          </strength>
        </ingredient>
      </Medication>
    </resource>
  </entry>
  <entry>
    <resource>
      <Medication>
        <id value="medication-C-Presc-PerfDobutamine-Qsp40mL"/>
        <meta>
          <profile value="https://hl7.fr/ig/fhir/medication/StructureDefinition/fr-medication-compound"/>
          <profile value="https://hl7.fr/fhir/fr/medication/StructureDefinition/fr-medication-compound"/>
        </meta>
        <text>
          <status value="generated"/><div xmlns="http://www.w3.org/1999/xhtml"><a name="Medication_medication-C-Presc-PerfDobutamine-Qsp40mL"> </a><p class="res-header-id"><b>Narratif généré : Médication medication-C-Presc-PerfDobutamine-Qsp40mL</b></p><a name="medication-C-Presc-PerfDobutamine-Qsp40mL"> </a><a name="hcmedication-C-Presc-PerfDobutamine-Qsp40mL"> </a><div style="display: inline-block; background-color: #d9e0e7; padding: 6px; margin: 4px; border: 1px solid #8da1b4; border-radius: 5px; line-height: 60%"><p style="margin-bottom: 0px"/><p style="margin-bottom: 0px">Profils: <a href="StructureDefinition-fr-medication-compound.html">FrMedicationCompound</a>, <code>https://hl7.fr/fhir/fr/medication/StructureDefinition/fr-medication-compound</code></p></div><p><b>code</b>: <span title="Codes:">Dobutamine 200 mg dans G5 qsp 40 mL</span></p><p><b>amount</b>: 40 ml<span style="background: LightGoldenRodYellow"> (Details: UCUM  codeml = 'ml')</span>/</p><p><b style="color: maroon">Exception Generating Narrative: Cannot invoke &quot;org.hl7.fhir.r5.renderers.utils.ResourceWrapper.has(String)&quot; because &quot;q&quot; is null </b></p></div>
        </text>
        <code>
          <text value="Dobutamine 200 mg dans G5 qsp 40 mL"/>
        </code>
        <amount>
          <numerator>
            <value value="40"/>
            <unit value="ml"/>
            <system value="http://unitsofmeasure.org"/>
            <code value="ml"/>
          </numerator>
        </amount>
        <ingredient>
          <extension url="https://hl7.fr/ig/fhir/medication/StructureDefinition/fr-is-vehicle">
            <valueBoolean value="true"/>
          </extension>
          <itemReference>
            <reference value="#medication-2-Presc-PerfDobutamine-Qsp40mL"/>
          </itemReference>
        </ingredient>
      </Medication>
    </resource>
  </entry>
  <entry>
    <resource>
      <MedicationRequest>
        <id value="medicationrequest-Presc-PerfDobutamine-Qsp40mL"/>
        <meta>
          <profile value="https://hl7.fr/ig/fhir/medication/StructureDefinition/fr-inpatient-medicationrequest"/>
          <profile value="https://hl7.fr/fhir/fr/medication/StructureDefinition/fr-inpatient-medicationrequest"/>
        </meta>
        <text>
          <status value="generated"/><div xmlns="http://www.w3.org/1999/xhtml"><a name="MedicationRequest_medicationrequest-Presc-PerfDobutamine-Qsp40mL"> </a><p class="res-header-id"><b>Narratif généré : PrescriptionMédicamenteuseTODO medicationrequest-Presc-PerfDobutamine-Qsp40mL</b></p><a name="medicationrequest-Presc-PerfDobutamine-Qsp40mL"> </a><a name="hcmedicationrequest-Presc-PerfDobutamine-Qsp40mL"> </a><div style="display: inline-block; background-color: #d9e0e7; padding: 6px; margin: 4px; border: 1px solid #8da1b4; border-radius: 5px; line-height: 60%"><p style="margin-bottom: 0px"/><p style="margin-bottom: 0px">Profils: <a href="StructureDefinition-fr-inpatient-medicationrequest.html">FrInpatientMedicationRequest</a>, <code>https://hl7.fr/fhir/fr/medication/StructureDefinition/fr-inpatient-medicationrequest</code></p></div><p><b>status</b>: Active</p><p><b>intent</b>: Order</p><p><b>priority</b>: Routine</p><p><b>medication</b>: <code>#medication-C-Presc-PerfDobutamine-Qsp40mL</code></p><p><b>subject</b>: <a href="Patient/14602">Patient/14602</a></p><p><b>authoredOn</b>: 2021-10-15 10:25:27+0000</p><p><b>requester</b>: <a href="Practitioner/smart-Practitioner-71482713">Practitioner/smart-Practitioner-71482713</a></p><p><b>groupIdentifier</b>: <code>https://somehospital.fr/Prescrption-ID</code>/Presc-14651</p><blockquote><p><b>dosageInstruction</b></p><p><b>sequence</b>: 1</p><p><b>timing</b>: Once</p><p><b>route</b>: <span title="Codes:{http://standardterms.edqm.eu 20045000}">Voie intraveineuse</span></p><h3>DoseAndRates</h3><table class="grid"><tr><td style="display: none">-</td><td><b>Extension</b></td><td><b>Rate[x]</b></td></tr><tr><td style="display: none">*</td><td/><td>400 µg<span style="background: LightGoldenRodYellow"> (Details: UCUM  codeug = 'ug')</span>/1 min<span style="background: LightGoldenRodYellow"> (Details: UCUM  codemin = 'min')</span></td></tr></table></blockquote></div>
        </text>
        <status value="active"/>
        <intent value="order"/>
        <priority value="routine"/>
        <medicationReference>
          <reference value="#medication-C-Presc-PerfDobutamine-Qsp40mL"/>
        </medicationReference>
        <subject>
          <reference value="Patient/14602"/>
        </subject>
        <authoredOn value="2021-10-15T10:25:27.401Z"/>
        <requester>
          <reference value="Practitioner/smart-Practitioner-71482713"/>
        </requester>
        <groupIdentifier>
          <system value="https://somehospital.fr/Prescrption-ID"/>
          <value value="Presc-14651"/>
        </groupIdentifier>
        <dosageInstruction>
          <sequence value="1"/>
          <timing>
            <repeat>
              <boundsPeriod>
                <start value="2021-10-15T10:25:00Z"/>
                <end value="2021-10-16T10:24:59Z"/>
              </boundsPeriod>
            </repeat>
          </timing>
          <route>
            <coding>
              <system value="http://standardterms.edqm.eu"/>
              <code value="20045000"/>
              <display value="Voie intraveineuse"/>
            </coding>
            <text value="Voie intraveineuse"/>
          </route>
          <doseAndRate>
            <extension url="https://hl7.fr/ig/fhir/medication/StructureDefinition/fr-basis-of-dose-component">
              <valueReference>
                <reference value="#medication-1-Presc-PerfDobutamine-Qsp40mL"/>
              </valueReference>
            </extension>
            <rateRatio>
              <numerator>
                <value value="400"/>
                <unit value="µg"/>
                <system value="http://unitsofmeasure.org"/>
                <code value="ug"/>
              </numerator>
              <denominator>
                <value value="1"/>
                <unit value="min"/>
                <system value="http://unitsofmeasure.org"/>
                <code value="min"/>
              </denominator>
            </rateRatio>
          </doseAndRate>
        </dosageInstruction>
      </MedicationRequest>
    </resource>
  </entry>
</Bundle>