{
  "resourceType" : "Bundle",
  "id" : "Presc-PerfGl-NaCl-KCl-1l",
  "meta" : {
    "profile" : ["https://hl7.fr/fhir/fr/medication/StructureDefinition/fr-prescription-bundle-for-example"]
  },
  "type" : "searchset",
  "entry" : [{
    "resource" : {
      "resourceType" : "Medication",
      "id" : "medication-1-Presc-PerfGl-NaCl-KCl-1l",
      "meta" : {
        "profile" : ["https://hl7.fr/fhir/fr/medication/StructureDefinition/fr-medication-noncompound"]
      },
      "text" : {
        "status" : "generated",
        "div" : "<div xmlns=\"http://www.w3.org/1999/xhtml\"><a name=\"Medication_medication-1-Presc-PerfGl-NaCl-KCl-1l\"> </a><p class=\"res-header-id\"><b>Generated Narrative: Medication medication-1-Presc-PerfGl-NaCl-KCl-1l</b></p><a name=\"medication-1-Presc-PerfGl-NaCl-KCl-1l\"> </a><a name=\"hcmedication-1-Presc-PerfGl-NaCl-KCl-1l\"> </a><div style=\"display: inline-block; background-color: #d9e0e7; padding: 6px; margin: 4px; border: 1px solid #8da1b4; border-radius: 5px; line-height: 60%\"><p style=\"margin-bottom: 0px\"/><p style=\"margin-bottom: 0px\">Profile: <a href=\"StructureDefinition-fr-medication-noncompound.html\">FrMedicationNonCompound</a></p></div><p><b>code</b>: <span title=\"Codes:{http://data.esante.gouv.fr/ansm/medicament/codeSMS 100000078171}\">GLUCOSE</span></p><p><b>form</b>: <span title=\"Codes:{http://standardterms.edqm.eu 11210000}\">solution pour perfusion</span></p><p><b>amount</b>: 1 L<span style=\"background: LightGoldenRodYellow\"> (Details: UCUM  codeL = 'L')</span>/</p><p><b style=\"color: maroon\">Exception Generating Narrative: Cannot invoke &quot;org.hl7.fhir.r5.renderers.utils.ResourceWrapper.has(String)&quot; because &quot;q&quot; is null </b></p></div>"
      },
      "code" : {
        "coding" : [{
          "system" : "http://data.esante.gouv.fr/ansm/medicament/codeSMS",
          "code" : "100000078171",
          "display" : "glucose"
        }],
        "text" : "GLUCOSE"
      },
      "form" : {
        "coding" : [{
          "system" : "http://standardterms.edqm.eu",
          "code" : "11210000",
          "display" : "solution pour perfusion"
        }],
        "text" : "solution pour perfusion"
      },
      "amount" : {
        "numerator" : {
          "value" : 1,
          "unit" : "L",
          "system" : "http://unitsofmeasure.org",
          "code" : "L"
        }
      },
      "ingredient" : [{
        "itemCodeableConcept" : {
          "coding" : [{
            "system" : "http://snomed.info/sct",
            "code" : "67079006",
            "display" : "glucose"
          }],
          "text" : "GLUCOSE"
        },
        "strength" : {
          "numerator" : {
            "value" : 50,
            "unit" : "mg",
            "system" : "http://unitsofmeasure.org",
            "code" : "mg"
          },
          "denominator" : {
            "value" : 1,
            "unit" : "mL",
            "system" : "http://unitsofmeasure.org",
            "code" : "mL"
          }
        }
      }]
    }
  },
  {
    "resource" : {
      "resourceType" : "Medication",
      "id" : "medication-2-Presc-PerfGl-NaCl-KCl-1l",
      "meta" : {
        "profile" : ["https://hl7.fr/fhir/fr/medication/StructureDefinition/fr-medication-noncompound"]
      },
      "text" : {
        "status" : "generated",
        "div" : "<div xmlns=\"http://www.w3.org/1999/xhtml\"><a name=\"Medication_medication-2-Presc-PerfGl-NaCl-KCl-1l\"> </a><p class=\"res-header-id\"><b>Generated Narrative: Medication medication-2-Presc-PerfGl-NaCl-KCl-1l</b></p><a name=\"medication-2-Presc-PerfGl-NaCl-KCl-1l\"> </a><a name=\"hcmedication-2-Presc-PerfGl-NaCl-KCl-1l\"> </a><div style=\"display: inline-block; background-color: #d9e0e7; padding: 6px; margin: 4px; border: 1px solid #8da1b4; border-radius: 5px; line-height: 60%\"><p style=\"margin-bottom: 0px\"/><p style=\"margin-bottom: 0px\">Profile: <a href=\"StructureDefinition-fr-medication-noncompound.html\">FrMedicationNonCompound</a></p></div><p><b>code</b>: <span title=\"Codes:{http://data.esante.gouv.fr/ansm/medicament/codeSMS 100000092115}\">SODIUM CHLORURE</span></p><p><b>form</b>: <span title=\"Codes:{http://standardterms.edqm.eu 11201000}\">solution injectable</span></p><p><b>amount</b>: 3 g<span style=\"background: LightGoldenRodYellow\"> (Details: UCUM  codeg = 'g')</span>/</p><p><b style=\"color: maroon\">Exception Generating Narrative: Cannot invoke &quot;org.hl7.fhir.r5.renderers.utils.ResourceWrapper.has(String)&quot; because &quot;q&quot; is null </b></p></div>"
      },
      "code" : {
        "coding" : [{
          "system" : "http://data.esante.gouv.fr/ansm/medicament/codeSMS",
          "code" : "100000092115",
          "display" : "chlorure de sodium"
        }],
        "text" : "SODIUM CHLORURE"
      },
      "form" : {
        "coding" : [{
          "system" : "http://standardterms.edqm.eu",
          "code" : "11201000",
          "display" : "solution injectable"
        }],
        "text" : "solution injectable"
      },
      "amount" : {
        "numerator" : {
          "value" : 3,
          "unit" : "g",
          "system" : "http://unitsofmeasure.org",
          "code" : "g"
        }
      }
    }
  },
  {
    "resource" : {
      "resourceType" : "Medication",
      "id" : "medication-3-Presc-PerfGl-NaCl-KCl-1l",
      "meta" : {
        "profile" : ["https://hl7.fr/fhir/fr/medication/StructureDefinition/fr-medication-noncompound"]
      },
      "text" : {
        "status" : "generated",
        "div" : "<div xmlns=\"http://www.w3.org/1999/xhtml\"><a name=\"Medication_medication-3-Presc-PerfGl-NaCl-KCl-1l\"> </a><p class=\"res-header-id\"><b>Generated Narrative: Medication medication-3-Presc-PerfGl-NaCl-KCl-1l</b></p><a name=\"medication-3-Presc-PerfGl-NaCl-KCl-1l\"> </a><a name=\"hcmedication-3-Presc-PerfGl-NaCl-KCl-1l\"> </a><div style=\"display: inline-block; background-color: #d9e0e7; padding: 6px; margin: 4px; border: 1px solid #8da1b4; border-radius: 5px; line-height: 60%\"><p style=\"margin-bottom: 0px\"/><p style=\"margin-bottom: 0px\">Profile: <a href=\"StructureDefinition-fr-medication-noncompound.html\">FrMedicationNonCompound</a></p></div><p><b>code</b>: <span title=\"Codes:{http://data.esante.gouv.fr/ansm/medicament/codeSMS 100000091807}\">POTASSIUM CHLORURE</span></p><p><b>form</b>: <span title=\"Codes:{http://standardterms.edqm.eu 11201000}\">solution injectable</span></p><p><b>amount</b>: 2 g<span style=\"background: LightGoldenRodYellow\"> (Details: UCUM  codeg = 'g')</span>/</p><p><b style=\"color: maroon\">Exception Generating Narrative: Cannot invoke &quot;org.hl7.fhir.r5.renderers.utils.ResourceWrapper.has(String)&quot; because &quot;q&quot; is null </b></p></div>"
      },
      "code" : {
        "coding" : [{
          "system" : "http://data.esante.gouv.fr/ansm/medicament/codeSMS",
          "code" : "100000091807",
          "display" : "chlorure de potassium"
        }],
        "text" : "POTASSIUM CHLORURE"
      },
      "form" : {
        "coding" : [{
          "system" : "http://standardterms.edqm.eu",
          "code" : "11201000",
          "display" : "solution injectable"
        }],
        "text" : "solution injectable"
      },
      "amount" : {
        "numerator" : {
          "value" : 2,
          "unit" : "g",
          "system" : "http://unitsofmeasure.org",
          "code" : "g"
        }
      }
    }
  },
  {
    "resource" : {
      "resourceType" : "Medication",
      "id" : "medication-C-14638",
      "meta" : {
        "profile" : ["https://hl7.fr/fhir/fr/medication/StructureDefinition/fr-medication-compound"]
      },
      "text" : {
        "status" : "generated",
        "div" : "<div xmlns=\"http://www.w3.org/1999/xhtml\"><a name=\"Medication_medication-C-14638\"> </a><p class=\"res-header-id\"><b>Generated Narrative: Medication medication-C-14638</b></p><a name=\"medication-C-14638\"> </a><a name=\"hcmedication-C-14638\"> </a><div style=\"display: inline-block; background-color: #d9e0e7; padding: 6px; margin: 4px; border: 1px solid #8da1b4; border-radius: 5px; line-height: 60%\"><p style=\"margin-bottom: 0px\"/><p style=\"margin-bottom: 0px\">Profile: <a href=\"StructureDefinition-fr-medication-compound.html\">FrMedicationCompound</a></p></div><p><b>code</b>: <span title=\"Codes:\">G5 1L + NaCl 3g + KCl 2g</span></p><blockquote><p><b>ingredient</b></p><p><b>item</b>: <code>#medication-1-Presc-PerfGl-NaCl-KCl-1l</code></p></blockquote><blockquote><p><b>ingredient</b></p><p><b>item</b>: <code>#medication-2-Presc-PerfGl-NaCl-KCl-1l</code></p></blockquote><blockquote><p><b>ingredient</b></p><p><b>item</b>: <code>#medication-3-Presc-PerfGl-NaCl-KCl-1l</code></p></blockquote></div>"
      },
      "code" : {
        "text" : "G5 1L + NaCl 3g + KCl 2g"
      },
      "ingredient" : [{
        "itemReference" : {
          "reference" : "#medication-1-Presc-PerfGl-NaCl-KCl-1l"
        }
      },
      {
        "itemReference" : {
          "reference" : "#medication-2-Presc-PerfGl-NaCl-KCl-1l"
        }
      },
      {
        "itemReference" : {
          "reference" : "#medication-3-Presc-PerfGl-NaCl-KCl-1l"
        }
      }]
    }
  },
  {
    "resource" : {
      "resourceType" : "MedicationRequest",
      "id" : "medicationrequest-Presc-PerfGl-NaCl-KCl-1l",
      "meta" : {
        "profile" : ["https://hl7.fr/fhir/fr/medication/StructureDefinition/fr-inpatient-medicationrequest"]
      },
      "text" : {
        "status" : "generated",
        "div" : "<div xmlns=\"http://www.w3.org/1999/xhtml\"><a name=\"MedicationRequest_medicationrequest-Presc-PerfGl-NaCl-KCl-1l\"> </a><p class=\"res-header-id\"><b>Generated Narrative: MedicationRequest medicationrequest-Presc-PerfGl-NaCl-KCl-1l</b></p><a name=\"medicationrequest-Presc-PerfGl-NaCl-KCl-1l\"> </a><a name=\"hcmedicationrequest-Presc-PerfGl-NaCl-KCl-1l\"> </a><div style=\"display: inline-block; background-color: #d9e0e7; padding: 6px; margin: 4px; border: 1px solid #8da1b4; border-radius: 5px; line-height: 60%\"><p style=\"margin-bottom: 0px\"/><p style=\"margin-bottom: 0px\">Profile: <a href=\"StructureDefinition-fr-inpatient-medicationrequest.html\">FrInpatientMedicationRequest</a></p></div><p><b>status</b>: Active</p><p><b>intent</b>: Order</p><p><b>priority</b>: Routine</p><p><b>medication</b>: <code>#medication-C-Presc-PerfGl-NaCl-KCl-1l</code></p><p><b>subject</b>: <a href=\"Patient/14602\">Patient/14602</a></p><p><b>authoredOn</b>: 2021-08-02 15:26:27+0000</p><p><b>requester</b>: <a href=\"Practitioner/smart-Practitioner-71482713\">Practitioner/smart-Practitioner-71482713</a></p><p><b>groupIdentifier</b>: <code>https://somehospital.fr/Prescrption-ID</code>/Presc-14638</p><blockquote><p><b>dosageInstruction</b></p><p><b>sequence</b>: 1</p><p><b>timing</b>: Once</p><p><b>route</b>: <span title=\"Codes:{http://standardterms.edqm.eu 20045000}\">Voie intraveineuse</span></p><h3>DoseAndRates</h3><table class=\"grid\"><tr><td style=\"display: none\">-</td><td><b>Rate[x]</b></td></tr><tr><td style=\"display: none\">*</td><td>1 Poche<span style=\"background: LightGoldenRodYellow\"> (Details: standardterms.edqm.eu  code15005000 = 'Bag')</span>/12 h<span style=\"background: LightGoldenRodYellow\"> (Details: UCUM  codeh = 'h')</span></td></tr></table></blockquote></div>"
      },
      "status" : "active",
      "intent" : "order",
      "priority" : "routine",
      "medicationReference" : {
        "reference" : "#medication-C-Presc-PerfGl-NaCl-KCl-1l"
      },
      "subject" : {
        "reference" : "Patient/14602"
      },
      "authoredOn" : "2021-08-02T15:26:27.603Z",
      "requester" : {
        "reference" : "Practitioner/smart-Practitioner-71482713"
      },
      "groupIdentifier" : {
        "system" : "https://somehospital.fr/Prescrption-ID",
        "value" : "Presc-14638"
      },
      "dosageInstruction" : [{
        "sequence" : 1,
        "timing" : {
          "repeat" : {
            "boundsPeriod" : {
              "start" : "2021-07-02T15:26:00Z",
              "end" : "2021-07-07T15:25:59Z"
            },
            "timeOfDay" : ["10:00:00",
            "22:00:00"]
          }
        },
        "route" : {
          "coding" : [{
            "system" : "http://standardterms.edqm.eu",
            "code" : "20045000",
            "display" : "Voie intraveineuse"
          }],
          "text" : "Voie intraveineuse"
        },
        "doseAndRate" : [{
          "rateRatio" : {
            "numerator" : {
              "value" : 1,
              "unit" : "Poche",
              "system" : "http://standardterms.edqm.eu",
              "code" : "15005000"
            },
            "denominator" : {
              "value" : 12,
              "unit" : "h",
              "system" : "http://unitsofmeasure.org",
              "code" : "h"
            }
          }
        }]
      }]
    }
  }]
}