<?xml version="1.0" encoding="UTF-8"?>

<Bundle xmlns="http://hl7.org/fhir">
  <id value="Presc-MiniperfCefotaxime-En20min-Pdt3j"/>
  <meta>
    <profile value="https://hl7.fr/ig/fhir/medication/StructureDefinition/fr-prescription-bundle-for-example"/>
  </meta>
  <type value="searchset"/>
  <entry>
    <resource>
      <Medication>
        <id value="medication-1-Presc-MiniperfCefotaxime-En20min-Pdt3j"/>
        <meta>
          <profile value="https://hl7.fr/ig/fhir/medication/StructureDefinition/fr-medication-noncompound"/>
        </meta>
        <text>
          <status value="generated"/><div xmlns="http://www.w3.org/1999/xhtml"><a name="Medication_medication-1-Presc-MiniperfCefotaxime-En20min-Pdt3j"> </a><p class="res-header-id"><b>Narratif généré : Médication medication-1-Presc-MiniperfCefotaxime-En20min-Pdt3j</b></p><a name="medication-1-Presc-MiniperfCefotaxime-En20min-Pdt3j"> </a><a name="hcmedication-1-Presc-MiniperfCefotaxime-En20min-Pdt3j"> </a><div style="display: inline-block; background-color: #d9e0e7; padding: 6px; margin: 4px; border: 1px solid #8da1b4; border-radius: 5px; line-height: 60%"><p style="margin-bottom: 0px"/><p style="margin-bottom: 0px">Profil: <a href="StructureDefinition-fr-medication-noncompound.html">FR Medication Non Compound</a></p></div><p><b>code</b>: <span title="Codes :{http://data.esante.gouv.fr/ansm/medicament/codeSMS 100000092662}">CEFOTAXINE</span></p></div>
        </text>
        <code>
          <coding>
            <system value="http://data.esante.gouv.fr/ansm/medicament/codeSMS"/>
            <code value="100000092662"/>
            <display value="céfotaxime"/>
          </coding>
          <text value="CEFOTAXINE"/>
        </code>
      </Medication>
    </resource>
  </entry>
  <entry>
    <resource>
      <Medication>
        <id value="medication-2-Presc-MiniperfCefotaxime-En20min-Pdt3j"/>
        <meta>
          <profile value="https://hl7.fr/ig/fhir/medication/StructureDefinition/fr-medication-noncompound"/>
        </meta>
        <text>
          <status value="generated"/><div xmlns="http://www.w3.org/1999/xhtml"><a name="Medication_medication-2-Presc-MiniperfCefotaxime-En20min-Pdt3j"> </a><p class="res-header-id"><b>Narratif généré : Médication medication-2-Presc-MiniperfCefotaxime-En20min-Pdt3j</b></p><a name="medication-2-Presc-MiniperfCefotaxime-En20min-Pdt3j"> </a><a name="hcmedication-2-Presc-MiniperfCefotaxime-En20min-Pdt3j"> </a><div style="display: inline-block; background-color: #d9e0e7; padding: 6px; margin: 4px; border: 1px solid #8da1b4; border-radius: 5px; line-height: 60%"><p style="margin-bottom: 0px"/><p style="margin-bottom: 0px">Profil: <a href="StructureDefinition-fr-medication-noncompound.html">FR Medication Non Compound</a></p></div><p><b>code</b>: <span title="Codes :{http://data.esante.gouv.fr/ansm/medicament/codeSMS 100000078171}">GLUCOSE</span></p><p><b>form</b>: <span title="Codes :{http://standardterms.edqm.eu 11210000}">solution pour perfusion</span></p><p><b>amount</b>: 100 mL<span style="background: LightGoldenRodYellow"> (Détails : code UCUMmL = 'mL')</span>/1</p><h3>Ingredients</h3><table class="grid"><tr><td style="display: none">-</td><td><b>Item[x]</b></td><td><b>Strength</b></td></tr><tr><td style="display: none">*</td><td><span title="Codes :{http://data.esante.gouv.fr/ansm/medicament/codeSMS 100000078171}">GLUCOSE</span></td><td>50 mg<span style="background: LightGoldenRodYellow"> (Détails : code UCUMmg = 'mg')</span>/1 mL<span style="background: LightGoldenRodYellow"> (Détails : code UCUMmL = 'mL')</span></td></tr></table></div>
        </text>
        <code>
          <coding>
            <system value="http://data.esante.gouv.fr/ansm/medicament/codeSMS"/>
            <code value="100000078171"/>
            <display value="glucose"/>
          </coding>
          <text value="GLUCOSE"/>
        </code>
        <form>
          <coding>
            <system value="http://standardterms.edqm.eu"/>
            <code value="11210000"/>
            <display value="solution pour perfusion"/>
          </coding>
          <text value="solution pour perfusion"/>
        </form>
        <amount>
          <numerator>
            <value value="100"/>
            <unit value="mL"/>
            <system value="http://unitsofmeasure.org"/>
            <code value="mL"/>
          </numerator>
          <denominator>
            <value value="1"/>
          </denominator>
        </amount>
        <ingredient>
          <itemCodeableConcept>
            <coding>
              <system value="http://data.esante.gouv.fr/ansm/medicament/codeSMS"/>
              <code value="100000078171"/>
              <display value="glucose"/>
            </coding>
            <text value="GLUCOSE"/>
          </itemCodeableConcept>
          <strength>
            <numerator>
              <value value="50"/>
              <unit value="mg"/>
              <system value="http://unitsofmeasure.org"/>
              <code value="mg"/>
            </numerator>
            <denominator>
              <value value="1"/>
              <unit value="mL"/>
              <system value="http://unitsofmeasure.org"/>
              <code value="mL"/>
            </denominator>
          </strength>
        </ingredient>
      </Medication>
    </resource>
  </entry>
  <entry>
    <resource>
      <Medication>
        <id value="medication-C-Presc-MiniperfCefotaxime-En20min-Pdt3j"/>
        <meta>
          <profile value="https://hl7.fr/ig/fhir/medication/StructureDefinition/fr-medication-compound"/>
        </meta>
        <text>
          <status value="extensions"/><div xmlns="http://www.w3.org/1999/xhtml"><a name="Medication_medication-C-Presc-MiniperfCefotaxime-En20min-Pdt3j"> </a><p class="res-header-id"><b>Narratif généré : Médication medication-C-Presc-MiniperfCefotaxime-En20min-Pdt3j</b></p><a name="medication-C-Presc-MiniperfCefotaxime-En20min-Pdt3j"> </a><a name="hcmedication-C-Presc-MiniperfCefotaxime-En20min-Pdt3j"> </a><div style="display: inline-block; background-color: #d9e0e7; padding: 6px; margin: 4px; border: 1px solid #8da1b4; border-radius: 5px; line-height: 60%"><p style="margin-bottom: 0px"/><p style="margin-bottom: 0px">Profil: <a href="StructureDefinition-fr-medication-compound.html">FR Medication Compound</a></p></div><blockquote><p><b>ingredient</b></p><p><b>item</b>: <code>#medication-1-Presc-MiniperfCefotaxime-En20min-Pdt3j</code></p></blockquote><blockquote><p><b>ingredient</b></p><p><b>Medication component which is the vehicle of the compound Medication</b>: true</p><p><b>item</b>: <code>#medication-2-Presc-MiniperfCefotaxime-En20min-Pdt3j</code></p></blockquote></div>
        </text>
        <ingredient>
          <itemReference>
            <reference value="#medication-1-Presc-MiniperfCefotaxime-En20min-Pdt3j"/>
          </itemReference>
        </ingredient>
        <ingredient>
          <extension url="https://hl7.fr/ig/fhir/medication/StructureDefinition/fr-is-vehicle">
            <valueBoolean value="true"/>
          </extension>
          <itemReference>
            <reference value="#medication-2-Presc-MiniperfCefotaxime-En20min-Pdt3j"/>
          </itemReference>
        </ingredient>
      </Medication>
    </resource>
  </entry>
  <entry>
    <resource>
      <MedicationRequest>
        <id value="medicationrequest-Presc-MiniperfCefotaxime-En20min-Pdt3j"/>
        <meta>
          <profile value="https://hl7.fr/ig/fhir/medication/StructureDefinition/fr-inpatient-medicationrequest"/>
        </meta>
        <text>
          <status value="generated"/><div xmlns="http://www.w3.org/1999/xhtml"><a name="MedicationRequest_medicationrequest-Presc-MiniperfCefotaxime-En20min-Pdt3j"> </a><p class="res-header-id"><b>Narratif généré : PrescriptionMédicamenteuseTODO medicationrequest-Presc-MiniperfCefotaxime-En20min-Pdt3j</b></p><a name="medicationrequest-Presc-MiniperfCefotaxime-En20min-Pdt3j"> </a><a name="hcmedicationrequest-Presc-MiniperfCefotaxime-En20min-Pdt3j"> </a><div style="display: inline-block; background-color: #d9e0e7; padding: 6px; margin: 4px; border: 1px solid #8da1b4; border-radius: 5px; line-height: 60%"><p style="margin-bottom: 0px"/><p style="margin-bottom: 0px">Profil: <a href="StructureDefinition-fr-inpatient-medicationrequest.html">FR Inpatient MedicationRequest</a></p></div><p><b>status</b>: Active</p><p><b>intent</b>: Order</p><p><b>priority</b>: Routine</p><p><b>medication</b>: <code>#medication-C-Presc-MiniperfCefotaxime-En20min-Pdt3j</code></p><p><b>subject</b>: <a href="Patient/14602">Patient/14602</a></p><p><b>authoredOn</b>: 2021-10-02 17:22:25+0000</p><p><b>requester</b>: <a href="Practitioner/smart-Practitioner-71482713">Practitioner/smart-Practitioner-71482713</a></p><p><b>groupIdentifier</b>: <code>https://somehospital.fr/Prescrption-ID</code>/Presc-14650</p><blockquote><p><b>dosageInstruction</b></p><p><b>timing</b>: Une fois par 6 hours</p><p><b>route</b>: <span title="Codes :{http://standardterms.edqm.eu 20045000}">Voie intraveineuse</span></p><h3>DoseAndRates</h3><table class="grid"><tr><td style="display: none">-</td><td><b>Extension</b></td><td><b>Rate[x]</b></td></tr><tr><td style="display: none">*</td><td/><td>4 g<span style="background: LightGoldenRodYellow"> (Détails : code UCUMg = 'g')</span>/20 min<span style="background: LightGoldenRodYellow"> (Détails : code UCUMmin = 'min')</span></td></tr></table></blockquote></div>
        </text>
        <status value="active"/>
        <intent value="order"/>
        <priority value="routine"/>
        <medicationReference>
          <reference value="#medication-C-Presc-MiniperfCefotaxime-En20min-Pdt3j"/>
        </medicationReference>
        <subject>
          <reference value="Patient/14602"/>
        </subject>
        <authoredOn value="2021-10-02T17:22:25.401Z"/>
        <requester>
          <reference value="Practitioner/smart-Practitioner-71482713"/>
        </requester>
        <groupIdentifier>
          <system value="https://somehospital.fr/Prescrption-ID"/>
          <value value="Presc-14650"/>
        </groupIdentifier>
        <dosageInstruction>
          <timing>
            <repeat>
              <boundsPeriod>
                <start value="2021-10-02T17:22:00Z"/>
                <end value="2021-10-05T17:21:59Z"/>
              </boundsPeriod>
              <frequency value="1"/>
              <period value="6"/>
              <periodUnit value="h"/>
            </repeat>
          </timing>
          <route>
            <coding>
              <system value="http://standardterms.edqm.eu"/>
              <code value="20045000"/>
              <display value="Voie intraveineuse"/>
            </coding>
            <text value="Voie intraveineuse"/>
          </route>
          <doseAndRate>
            <extension url="https://hl7.fr/ig/fhir/medication/StructureDefinition/fr-basis-of-dose-component">
              <valueReference>
                <reference value="#medication-1-Presc-MiniperfCefotaxime-En20min-Pdt3j"/>
              </valueReference>
            </extension>
            <rateRatio>
              <numerator>
                <value value="4"/>
                <unit value="g"/>
                <system value="http://unitsofmeasure.org"/>
                <code value="g"/>
              </numerator>
              <denominator>
                <value value="20"/>
                <unit value="min"/>
                <system value="http://unitsofmeasure.org"/>
                <code value="min"/>
              </denominator>
            </rateRatio>
          </doseAndRate>
        </dosageInstruction>
      </MedicationRequest>
    </resource>
  </entry>
</Bundle>