<?xml version="1.0" encoding="UTF-8"?>

<Bundle xmlns="http://hl7.org/fhir">
  <id value="bundle-DC-2"/>
  <meta>
    <profile value="https://hl7.fr/fhir/fr/medication/StructureDefinition/fr-prescription-bundle-for-example"/>
  </meta>
  <type value="searchset"/>
  <entry>
    <resource>
      <Patient>
        <id value="Patient-DC-2"/>
        <meta>
          <profile value="https://hl7.fr/ig/fhir/core/StructureDefinition/fr-core-patient"/>
        </meta>
        <text>
          <status value="generated"/><div xmlns="http://www.w3.org/1999/xhtml"><a name="Patient_Patient-DC-2"> </a><p class="res-header-id"><b>Generated Narrative: Patient Patient-DC-2</b></p><a name="Patient-DC-2"> </a><a name="hcPatient-DC-2"> </a><a name="Patient-DC-2-en-US"> </a><p style="border: 1px #661aff solid; background-color: #e6e6ff; padding: 10px;">AVION  (no stated gender), DoB: 1961-11-25 ( Patient internal identifier: 5000001820 (use: usual, ))</p><hr/><table class="grid"><tr><td style="background-color: #f3f5da" title="Alternate names (see the one above)">Alt. Name:</td><td colspan="3">JAUNE AVION (Official)</td></tr></table></div>
        </text>
        <identifier>
          <use value="usual"/>
          <type>
            <coding>
              <system value="http://terminology.hl7.org/CodeSystem/v2-0203"/>
              <code value="PI"/>
              <display value="Patient internal identifier"/>
            </coding>
          </type>
          <system value="https://somehospital.fr/IPP"/>
          <value value="5000001820"/>
        </identifier>
        <name>
          <use value="usual"/>
          <family value="AVION"/>
        </name>
        <name>
          <use value="official"/>
          <family value="AVION"/>
          <given value="JAUNE"/>
        </name>
        <birthDate value="1961-11-25"/>
      </Patient>
    </resource>
  </entry>
  <entry>
    <resource>
      <Practitioner>
        <id value="Practitioner-DC-2"/>
        <meta>
          <profile value="https://hl7.fr/ig/fhir/core/StructureDefinition/fr-core-practitioner"/>
        </meta>
        <text>
          <status value="generated"/><div xmlns="http://www.w3.org/1999/xhtml"><a name="Practitioner_Practitioner-DC-2"> </a><p class="res-header-id"><b>Generated Narrative: Practitioner Practitioner-DC-2</b></p><a name="Practitioner-DC-2"> </a><a name="hcPractitioner-DC-2"> </a><a name="Practitioner-DC-2-en-US"> </a><p><b>identifier</b>: Employee number/P082443</p><p><b>name</b>: DENIS LUIGGI , DENIS LUIGGI (Official)</p></div>
        </text>
        <identifier>
          <type>
            <coding>
              <system value="http://terminology.hl7.org/CodeSystem/v2-0203"/>
              <code value="EI"/>
            </coding>
          </type>
          <system value="https://somehospital.fr/EI"/>
          <value value="P082443"/>
        </identifier>
        <name>
          <use value="usual"/>
          <family value="LUIGGI"/>
          <given value="DENIS"/>
        </name>
        <name>
          <use value="official"/>
          <family value="LUIGGI"/>
          <given value="DENIS"/>
        </name>
      </Practitioner>
    </resource>
  </entry>
  <entry>
    <resource>
      <Medication>
        <id value="med-DC-2"/>
        <meta>
          <profile value="https://hl7.fr/fhir/fr/medication/StructureDefinition/fr-medication-noncompound"/>
        </meta>
        <text>
          <status value="generated"/><div xmlns="http://www.w3.org/1999/xhtml"><a name="Medication_med-DC-2"> </a><p class="res-header-id"><b>Generated Narrative: Medication med-DC-2</b></p><a name="med-DC-2"> </a><a name="hcmed-DC-2"> </a><a name="med-DC-2-en-US"> </a><p><b>code</b>: <span title="Codes:{http://data.esante.gouv.fr/ansm/medicament/codeSMS 100000090270}">PARACETAMOL</span></p></div>
        </text>
        <code>
          <coding>
            <system value="http://data.esante.gouv.fr/ansm/medicament/codeSMS"/>
            <code value="100000090270"/>
            <display value="paracétamol"/>
          </coding>
          <text value="PARACETAMOL"/>
        </code>
      </Medication>
    </resource>
  </entry>
  <entry>
    <resource>
      <Observation>
        <id value="Obs-DC-2-1"/>
        <meta>
          <profile value="https://hl7.fr/ig/fhir/core/StructureDefinition/fr-core-observation-body-height"/>
        </meta>
        <text>
          <status value="generated"/><div xmlns="http://www.w3.org/1999/xhtml"><a name="Observation_Obs-DC-2-1"> </a><p class="res-header-id"><b>Generated Narrative: Observation Obs-DC-2-1</b></p><a name="Obs-DC-2-1"> </a><a name="hcObs-DC-2-1"> </a><a name="Obs-DC-2-1-en-US"> </a><p><b>status</b>: Final</p><p><b>category</b>: <span title="Codes:{http://terminology.hl7.org/CodeSystem/observation-category vital-signs}">Vital Signs</span></p><p><b>code</b>: <span title="Codes:{http://loinc.org 8302-2}">Body height</span></p><p><b>subject</b>: <code>#Patient-DC-2</code></p><p><b>effective</b>: 2018-10-25 11:06:06+0200</p><p><b>value</b>: 189 cm<span style="background: LightGoldenRodYellow"> (Details: UCUM  codecm = 'cm')</span></p></div>
        </text>
        <status value="final"/>
        <category>
          <coding>
            <system value="http://terminology.hl7.org/CodeSystem/observation-category"/>
            <code value="vital-signs"/>
          </coding>
        </category>
        <code>
          <coding>
            <system value="http://loinc.org"/>
            <code value="8302-2"/>
          </coding>
        </code>
        <subject>
          <reference value="#Patient-DC-2"/>
        </subject>
        <effectiveDateTime value="2018-10-25T11:06:06+02:00"/>
        <valueQuantity>
          <value value="189"/>
          <unit value="cm"/>
          <system value="http://unitsofmeasure.org"/>
          <code value="cm"/>
        </valueQuantity>
      </Observation>
    </resource>
  </entry>
  <entry>
    <resource>
      <Observation>
        <id value="Obs-DC-2-2"/>
        <meta>
          <profile value="https://hl7.fr/ig/fhir/core/StructureDefinition/fr-core-observation-body-weight"/>
        </meta>
        <text>
          <status value="generated"/><div xmlns="http://www.w3.org/1999/xhtml"><a name="Observation_Obs-DC-2-2"> </a><p class="res-header-id"><b>Generated Narrative: Observation Obs-DC-2-2</b></p><a name="Obs-DC-2-2"> </a><a name="hcObs-DC-2-2"> </a><a name="Obs-DC-2-2-en-US"> </a><p><b>status</b>: Final</p><p><b>category</b>: <span title="Codes:{http://terminology.hl7.org/CodeSystem/observation-category vital-signs}">Vital Signs</span></p><p><b>code</b>: <span title="Codes:{http://loinc.org 29463-7}">Body weight</span></p><p><b>subject</b>: <code>#Patient-DC-2</code></p><p><b>effective</b>: 2018-06-21 16:05:10+0200</p><p><b>value</b>: 120 kg<span style="background: LightGoldenRodYellow"> (Details: UCUM  codekg = 'kg')</span></p></div>
        </text>
        <status value="final"/>
        <category>
          <coding>
            <system value="http://terminology.hl7.org/CodeSystem/observation-category"/>
            <code value="vital-signs"/>
          </coding>
        </category>
        <code>
          <coding>
            <system value="http://loinc.org"/>
            <code value="29463-7"/>
          </coding>
        </code>
        <subject>
          <reference value="#Patient-DC-2"/>
        </subject>
        <effectiveDateTime value="2018-06-21T16:05:10+02:00"/>
        <valueQuantity>
          <value value="120"/>
          <unit value="kg"/>
          <system value="http://unitsofmeasure.org"/>
          <code value="kg"/>
        </valueQuantity>
      </Observation>
    </resource>
  </entry>
  <entry>
    <resource>
      <MedicationRequest>
        <meta>
          <profile value="https://hl7.fr/fhir/fr/medication/StructureDefinition/fr-inpatient-medicationrequest3"/>
        </meta>
        <text>
          <status value="generated"/><div xmlns="http://www.w3.org/1999/xhtml"><a name="MedicationRequest_null"> </a><p class="res-header-id"><b>Generated Narrative: MedicationRequest </b></p><p><b>identifier</b>: <code>https://somehospital.fr/PrescrptionLine-ID</code>/31626</p><p><b>status</b>: Active</p><p><b>intent</b>: Order</p><p><b>priority</b>: Routine</p><p><b>medication</b>: <code>#med-DC-2</code></p><p><b>subject</b>: <code>#Patient-DC-2</code></p><p><b>encounter</b>: Identifier: <code>https://somehospital.fr/Sejour</code>/70101274</p><p><b>supportingInformation</b>: </p><ul><li>Identifier: <code>https://somehospital.fr/UF</code>/2571</li><li><code>#Obs-DC-2-1</code></li><li><code>#Obs-DC-2-2</code></li></ul><p><b>authoredOn</b>: 2022-04-11 16:42:53+0200</p><p><b>requester</b>: <code>#Practitioner-DC-2</code></p><p><b>groupIdentifier</b>: <code>https://somehospital.fr/Prescrption-ID</code>/10723</p><p><b>note</b>: Prescription textuelle: PARACETAMOL (Voie orale) A la demande :  1000 mg /prise,  4000 mg max/j,  respecter 6h entre 2 prises pendant 2 jours, Indication: En cas de douleur, Commentaire: Test paracetamol DC 2 (à la demande)</p><blockquote><p><b>dosageInstruction</b></p><p><b>timing</b>: Once per 6 hours</p><p><b>asNeeded</b>: true</p><p><b>route</b>: <span title="Codes:{http://standardterms.edqm.eu 20053000}">Voie orale</span></p><h3>DoseAndRates</h3><table class="grid"><tr><td style="display: none">-</td><td><b>Dose[x]</b></td></tr><tr><td style="display: none">*</td><td>1000 mg<span style="background: LightGoldenRodYellow"> (Details: UCUM  codemg = 'mg')</span></td></tr></table><p><b>maxDosePerPeriod</b>: 4 mg<span style="background: LightGoldenRodYellow"> (Details: UCUM  codemg = 'mg')</span>/1 d<span style="background: LightGoldenRodYellow"> (Details: UCUM  coded = 'd')</span></p></blockquote></div>
        </text>
        <identifier>
          <system value="https://somehospital.fr/PrescrptionLine-ID"/>
          <value value="31626"/>
        </identifier>
        <status value="active"/>
        <intent value="order"/>
        <priority value="routine"/>
        <medicationReference>
          <reference value="#med-DC-2"/>
        </medicationReference>
        <subject>
          <reference value="#Patient-DC-2"/>
        </subject>
        <encounter>
          <identifier>
            <system value="https://somehospital.fr/Sejour"/>
            <value value="70101274"/>
          </identifier>
        </encounter>
        <supportingInformation>
          <identifier>
            <system value="https://somehospital.fr/UF"/>
            <value value="2571"/>
          </identifier>
        </supportingInformation>
        <supportingInformation>
          <reference value="#Obs-DC-2-1"/>
        </supportingInformation>
        <supportingInformation>
          <reference value="#Obs-DC-2-2"/>
        </supportingInformation>
        <authoredOn value="2022-04-11T16:42:53+02:00"/>
        <requester>
          <reference value="#Practitioner-DC-2"/>
        </requester>
        <groupIdentifier>
          <system value="https://somehospital.fr/Prescrption-ID"/>
          <value value="10723"/>
        </groupIdentifier>
        <note>
          <text value="Prescription textuelle: PARACETAMOL (Voie orale) A la demande :  1000 mg /prise,  4000 mg max/j,  respecter 6h entre 2 prises pendant 2 jours"/>
        </note>
        <note>
          <text value="Indication: En cas de douleur"/>
        </note>
        <note>
          <text value="Commentaire: Test paracetamol DC 2 (à la demande)"/>
        </note>
        <dosageInstruction>
          <timing>
            <repeat>
              <boundsPeriod>
                <start value="2022-04-12T06:00:00+02:00"/>
                <end value="2022-04-15T00:00:00+02:00"/>
              </boundsPeriod>
              <frequencyMax value="1"/>
              <period value="6"/>
              <periodUnit value="h"/>
            </repeat>
          </timing>
          <asNeededBoolean value="true"/>
          <route>
            <coding>
              <system value="http://standardterms.edqm.eu"/>
              <code value="20053000"/>
              <display value="Voie orale"/>
            </coding>
          </route>
          <doseAndRate>
            <doseQuantity>
              <value value="1000"/>
              <unit value="mg"/>
              <system value="http://unitsofmeasure.org"/>
              <code value="mg"/>
            </doseQuantity>
          </doseAndRate>
          <maxDosePerPeriod>
            <numerator>
              <value value="4"/>
              <unit value="mg"/>
              <system value="http://unitsofmeasure.org"/>
              <code value="mg"/>
            </numerator>
            <denominator>
              <value value="1"/>
              <system value="http://unitsofmeasure.org"/>
              <code value="d"/>
            </denominator>
          </maxDosePerPeriod>
        </dosageInstruction>
      </MedicationRequest>
    </resource>
  </entry>
</Bundle>