{
  "resourceType" : "Bundle",
  "id" : "bundle-UCD-2Bis",
  "meta" : {
    "profile" : ["https://hl7.fr/fhir/fr/medication/StructureDefinition/fr-prescription-bundle-for-example"]
  },
  "type" : "searchset",
  "entry" : [{
    "resource" : {
      "resourceType" : "Patient",
      "id" : "Patient-UCD-2Bis",
      "meta" : {
        "profile" : ["https://hl7.fr/ig/fhir/core/StructureDefinition/fr-core-patient"]
      },
      "text" : {
        "status" : "generated",
        "div" : "<div xmlns=\"http://www.w3.org/1999/xhtml\"><a name=\"Patient_Patient-UCD-2Bis\"> </a><p class=\"res-header-id\"><b>Generated Narrative: Patient Patient-UCD-2Bis</b></p><a name=\"Patient-UCD-2Bis\"> </a><a name=\"hcPatient-UCD-2Bis\"> </a><a name=\"Patient-UCD-2Bis-en-US\"> </a><p style=\"border: 1px #661aff solid; background-color: #e6e6ff; padding: 10px;\">AVION  (no stated gender), DoB: 1961-11-25 ( Patient internal identifier: 5000001820\u00a0(use:\u00a0usual,\u00a0))</p><hr/><table class=\"grid\"><tr><td style=\"background-color: #f3f5da\" title=\"Alternate names (see the one above)\">Alt. Name:</td><td colspan=\"3\">JAUNE AVION (Official)</td></tr></table></div>"
      },
      "identifier" : [{
        "use" : "usual",
        "type" : {
          "coding" : [{
            "system" : "http://terminology.hl7.org/CodeSystem/v2-0203",
            "code" : "PI",
            "display" : "Patient internal identifier"
          }]
        },
        "system" : "https://somehospital.fr/IPP",
        "value" : "5000001820"
      }],
      "name" : [{
        "use" : "usual",
        "family" : "AVION"
      },
      {
        "use" : "official",
        "family" : "AVION",
        "given" : ["JAUNE"]
      }],
      "birthDate" : "1961-11-25"
    }
  },
  {
    "resource" : {
      "resourceType" : "Practitioner",
      "id" : "Practitioner-UCD-2Bis",
      "meta" : {
        "profile" : ["https://hl7.fr/ig/fhir/core/StructureDefinition/fr-core-practitioner"]
      },
      "text" : {
        "status" : "generated",
        "div" : "<div xmlns=\"http://www.w3.org/1999/xhtml\"><a name=\"Practitioner_Practitioner-UCD-2Bis\"> </a><p class=\"res-header-id\"><b>Generated Narrative: Practitioner Practitioner-UCD-2Bis</b></p><a name=\"Practitioner-UCD-2Bis\"> </a><a name=\"hcPractitioner-UCD-2Bis\"> </a><a name=\"Practitioner-UCD-2Bis-en-US\"> </a><p><b>identifier</b>: Employee number/P082443</p><p><b>name</b>: DENIS LUIGGI , DENIS LUIGGI (Official)</p></div>"
      },
      "identifier" : [{
        "type" : {
          "coding" : [{
            "system" : "http://terminology.hl7.org/CodeSystem/v2-0203",
            "code" : "EI"
          }]
        },
        "system" : "https://somehospital.fr/EI",
        "value" : "P082443"
      }],
      "name" : [{
        "use" : "usual",
        "family" : "LUIGGI",
        "given" : ["DENIS"]
      },
      {
        "use" : "official",
        "family" : "LUIGGI",
        "given" : ["DENIS"]
      }]
    }
  },
  {
    "resource" : {
      "resourceType" : "Medication",
      "id" : "med-UCD-2Bis",
      "meta" : {
        "profile" : ["https://hl7.fr/fhir/fr/medication/StructureDefinition/fr-medication-noncompound"]
      },
      "text" : {
        "status" : "generated",
        "div" : "<div xmlns=\"http://www.w3.org/1999/xhtml\"><a name=\"Medication_med-UCD-2Bis\"> </a><p class=\"res-header-id\"><b>Generated Narrative: Medication med-UCD-2Bis</b></p><a name=\"med-UCD-2Bis\"> </a><a name=\"hcmed-UCD-2Bis\"> </a><a name=\"med-UCD-2Bis-en-US\"> </a><p><b>code</b>: <span title=\"Codes:{http://data.esante.gouv.fr/ansm/medicament/UCD 3400890006262}\">PARACETAMOL MYLAN CONSEIL 1000 MG, COMPRIME</span></p><p><b>form</b>: <span title=\"Codes:{http://standardterms.edqm.eu 10219000}\">Comprimé</span></p></div>"
      },
      "code" : {
        "coding" : [{
          "system" : "http://data.esante.gouv.fr/ansm/medicament/UCD",
          "code" : "3400890006262",
          "display" : "PARACETAMOL VIC 1000MG CPR"
        }],
        "text" : "PARACETAMOL MYLAN CONSEIL 1000 MG, COMPRIME"
      },
      "form" : {
        "coding" : [{
          "system" : "http://standardterms.edqm.eu",
          "code" : "10219000",
          "display" : "Comprimé"
        }]
      }
    }
  },
  {
    "resource" : {
      "resourceType" : "Observation",
      "id" : "Obs-UCD-2Bis-1",
      "meta" : {
        "profile" : ["https://hl7.fr/ig/fhir/core/StructureDefinition/fr-core-observation-body-height"]
      },
      "text" : {
        "status" : "generated",
        "div" : "<div xmlns=\"http://www.w3.org/1999/xhtml\"><a name=\"Observation_Obs-UCD-2Bis-1\"> </a><p class=\"res-header-id\"><b>Generated Narrative: Observation Obs-UCD-2Bis-1</b></p><a name=\"Obs-UCD-2Bis-1\"> </a><a name=\"hcObs-UCD-2Bis-1\"> </a><a name=\"Obs-UCD-2Bis-1-en-US\"> </a><p><b>status</b>: Final</p><p><b>category</b>: <span title=\"Codes:{http://terminology.hl7.org/CodeSystem/observation-category vital-signs}\">Vital Signs</span></p><p><b>code</b>: <span title=\"Codes:{http://loinc.org 8302-2}\">Body height</span></p><p><b>subject</b>: <code>#Patient-UCD-2Bis</code></p><p><b>effective</b>: 2018-10-25 11:06:06+0200</p><p><b>value</b>: 189 cm<span style=\"background: LightGoldenRodYellow\"> (Details: UCUM  codecm = 'cm')</span></p></div>"
      },
      "status" : "final",
      "category" : [{
        "coding" : [{
          "system" : "http://terminology.hl7.org/CodeSystem/observation-category",
          "code" : "vital-signs"
        }]
      }],
      "code" : {
        "coding" : [{
          "system" : "http://loinc.org",
          "code" : "8302-2"
        }]
      },
      "subject" : {
        "reference" : "#Patient-UCD-2Bis"
      },
      "effectiveDateTime" : "2018-10-25T11:06:06+02:00",
      "valueQuantity" : {
        "value" : 189,
        "unit" : "cm",
        "system" : "http://unitsofmeasure.org",
        "code" : "cm"
      }
    }
  },
  {
    "resource" : {
      "resourceType" : "Observation",
      "id" : "Obs-UCD-2Bis-2",
      "meta" : {
        "profile" : ["https://hl7.fr/ig/fhir/core/StructureDefinition/fr-core-observation-body-weight"]
      },
      "text" : {
        "status" : "generated",
        "div" : "<div xmlns=\"http://www.w3.org/1999/xhtml\"><a name=\"Observation_Obs-UCD-2Bis-2\"> </a><p class=\"res-header-id\"><b>Generated Narrative: Observation Obs-UCD-2Bis-2</b></p><a name=\"Obs-UCD-2Bis-2\"> </a><a name=\"hcObs-UCD-2Bis-2\"> </a><a name=\"Obs-UCD-2Bis-2-en-US\"> </a><p><b>status</b>: Final</p><p><b>category</b>: <span title=\"Codes:{http://terminology.hl7.org/CodeSystem/observation-category vital-signs}\">Vital Signs</span></p><p><b>code</b>: <span title=\"Codes:{http://loinc.org 29463-7}\">Body weight</span></p><p><b>subject</b>: <code>#Patient-UCD-2Bis</code></p><p><b>effective</b>: 2018-06-21 16:05:10+0200</p><p><b>value</b>: 120 kg<span style=\"background: LightGoldenRodYellow\"> (Details: UCUM  codekg = 'kg')</span></p></div>"
      },
      "status" : "final",
      "category" : [{
        "coding" : [{
          "system" : "http://terminology.hl7.org/CodeSystem/observation-category",
          "code" : "vital-signs"
        }]
      }],
      "code" : {
        "coding" : [{
          "system" : "http://loinc.org",
          "code" : "29463-7"
        }]
      },
      "subject" : {
        "reference" : "#Patient-UCD-2Bis"
      },
      "effectiveDateTime" : "2018-06-21T16:05:10+02:00",
      "valueQuantity" : {
        "value" : 120,
        "unit" : "kg",
        "system" : "http://unitsofmeasure.org",
        "code" : "kg"
      }
    }
  },
  {
    "resource" : {
      "resourceType" : "MedicationRequest",
      "meta" : {
        "profile" : ["https://hl7.fr/fhir/fr/medication/StructureDefinition/fr-inpatient-medicationrequest3"]
      },
      "text" : {
        "status" : "generated",
        "div" : "<div xmlns=\"http://www.w3.org/1999/xhtml\"><a name=\"MedicationRequest_null\"> </a><p class=\"res-header-id\"><b>Generated Narrative: MedicationRequest </b></p><p><b>identifier</b>: <code>https://somehospital.fr/PrescrptionLine-ID</code>/31626</p><p><b>status</b>: Active</p><p><b>intent</b>: Order</p><p><b>priority</b>: Routine</p><p><b>medication</b>: <code>#med-UCD-2Bis</code></p><p><b>subject</b>: <code>#Patient-UCD-2Bis</code></p><p><b>encounter</b>: Identifier: <code>https://somehospital.fr/Sejour</code>/70101274</p><p><b>supportingInformation</b>: </p><ul><li>Identifier: <code>https://somehospital.fr/UF</code>/2571</li><li><code>#Obs-UCD-2Bis-1</code></li><li><code>#Obs-UCD-2Bis-2</code></li></ul><p><b>authoredOn</b>: 2022-04-11 16:42:53+0200</p><p><b>requester</b>: <code>#Practitioner-UCD-2Bis</code></p><p><b>groupIdentifier</b>: <code>https://somehospital.fr/Prescrption-ID</code>/10723</p><p><b>note</b>: Prescription textuelle: PARACETAMOL MYLAN CONSEIL 1000 MG, COMPRIME  (Voie orale) A la demande :  1000 mg /prise,  4000 mg max/j,  respecter 6h entre 2 prises pendant 2 jours, Indication: En cas de douleur, Commentaire: Test paracetamol 2 (à la demande)</p><blockquote><p><b>dosageInstruction</b></p><p><b>timing</b>: Once per 6 hours</p><p><b>asNeeded</b>: true</p><p><b>route</b>: <span title=\"Codes:{http://standardterms.edqm.eu 20053000}\">Voie orale</span></p><h3>DoseAndRates</h3><table class=\"grid\"><tr><td style=\"display: none\">-</td><td><b>Dose[x]</b></td></tr><tr><td style=\"display: none\">*</td><td>1 Comprimé<span style=\"background: LightGoldenRodYellow\"> (Details: standardterms.edqm.eu  code10219000 = 'Tablet')</span></td></tr></table><p><b>maxDosePerPeriod</b>: 4 Comprimé<span style=\"background: LightGoldenRodYellow\"> (Details: standardterms.edqm.eu  code10219000 = 'Tablet')</span>/1 d<span style=\"background: LightGoldenRodYellow\"> (Details: UCUM  coded = 'd')</span></p></blockquote></div>"
      },
      "identifier" : [{
        "system" : "https://somehospital.fr/PrescrptionLine-ID",
        "value" : "31626"
      }],
      "status" : "active",
      "intent" : "order",
      "priority" : "routine",
      "medicationReference" : {
        "reference" : "#med-UCD-2Bis"
      },
      "subject" : {
        "reference" : "#Patient-UCD-2Bis"
      },
      "encounter" : {
        "identifier" : {
          "system" : "https://somehospital.fr/Sejour",
          "value" : "70101274"
        }
      },
      "supportingInformation" : [{
        "identifier" : {
          "system" : "https://somehospital.fr/UF",
          "value" : "2571"
        }
      },
      {
        "reference" : "#Obs-UCD-2Bis-1"
      },
      {
        "reference" : "#Obs-UCD-2Bis-2"
      }],
      "authoredOn" : "2022-04-11T16:42:53+02:00",
      "requester" : {
        "reference" : "#Practitioner-UCD-2Bis"
      },
      "groupIdentifier" : {
        "system" : "https://somehospital.fr/Prescrption-ID",
        "value" : "10723"
      },
      "note" : [{
        "text" : "Prescription textuelle: PARACETAMOL MYLAN CONSEIL 1000 MG, COMPRIME  (Voie orale) A la demande :  1000 mg /prise,  4000 mg max/j,  respecter 6h entre 2 prises pendant 2 jours"
      },
      {
        "text" : "Indication: En cas de douleur"
      },
      {
        "text" : "Commentaire: Test paracetamol 2 (à la demande)"
      }],
      "dosageInstruction" : [{
        "timing" : {
          "repeat" : {
            "boundsPeriod" : {
              "start" : "2022-04-12T06:00:00+02:00",
              "end" : "2022-04-15T00:00:00+02:00"
            },
            "frequencyMax" : 1,
            "period" : 6,
            "periodUnit" : "h"
          }
        },
        "asNeededBoolean" : true,
        "route" : {
          "coding" : [{
            "system" : "http://standardterms.edqm.eu",
            "code" : "20053000",
            "display" : "Voie orale"
          }]
        },
        "doseAndRate" : [{
          "doseQuantity" : {
            "value" : 1,
            "unit" : "Comprimé",
            "system" : "http://standardterms.edqm.eu",
            "code" : "10219000"
          }
        }],
        "maxDosePerPeriod" : {
          "numerator" : {
            "value" : 4,
            "unit" : "Comprimé",
            "system" : "http://standardterms.edqm.eu",
            "code" : "10219000"
          },
          "denominator" : {
            "value" : 1,
            "system" : "http://unitsofmeasure.org",
            "code" : "d"
          }
        }
      }]
    }
  }]
}